prac_numbers,numbers,thisN,thisTrialN,thisRepN,practicenumbers_resp.keys,practicenumbers_resp.rt,practicenumbers_resp.duration,monitornumbers_resp.keys,monitornumbers_resp.rt,monitornumbers_resp.duration,trials.thisRepN,trials.thisTrialN,trials.thisN,trials.thisIndex,trials_2.thisRepN,trials_2.thisTrialN,trials_2.thisN,trials_2.thisIndex,thisRow.t,notes,welcome.started,welcome_words.started,cont_space.started,welcome.stopped,cont_space.keys,cont_space.rt,cont_space.duration,welcome2.started,instruction_preconsent.started,cont_space2.started,welcome2.stopped,cont_space2.keys,cont_space2.rt,cont_space2.duration,consent.started,text.started,key_resp_2.started,consent.stopped,key_resp_2.keys,key_resp_2.rt,key_resp_2.duration,consent2.started,text_5.started,key_resp_9.started,consent2.stopped,key_resp_9.keys,key_resp_9.rt,key_resp_9.duration,conset3.started,text_7.started,key_resp.started,conset3.stopped,key_resp.keys,key_resp.rt,key_resp.duration,instructions1.started,text_2.started,key_resp_3.started,instructions1.stopped,key_resp_3.keys,key_resp_3.rt,key_resp_3.duration,practice.started,practicenumbers.started,practicenumbers_resp.started,practice.stopped,trials.practicenumbers_resp.keys,trials.practicenumbers_resp.rt,trials.practicenumbers_resp.duration,instructions2.started,text_4.started,key_resp_6.started,instructions2.stopped,key_resp_6.keys,key_resp_6.rt,key_resp_6.duration,monitor.started,monitornumbers.started,monitornumbers_resp.started,monitor.stopped,trials_2.monitornumbers_resp.keys,trials_2.monitornumbers_resp.rt,trials_2.monitornumbers_resp.duration,end_task.started,text_6.started,key_resp_7.started,text_6.stopped,participant,session,date,expName,psychopyVersion,expStart,
,,,,,,,,,,,,,,,,,,,,,0.12952020799275488,0.1840550000051735,0.1840550000051735,13.316896499993163,space,13.090559666001354,None,,,,,,,,,,,,,,,,,,,,,,,,,,,,,,,,,,,,,,,,,,,,,,,,,,,,,,,,,,,,,111111,001,2025-02-17_16h23.10.329,dg_noaudio,2024.2.1,2025-02-17 16h23.42.076147 -0500,
,,,,,,,,,,,,,,,,,,,,,,,,,,,,13.31702933300403,13.331406124998466,13.331406124998466,22.861976957996376,space,9.513135500004864,None,,,,,,,,,,,,,,,,,,,,,,,,,,,,,,,,,,,,,,,,,,,,,,,,,,,,,,111111,001,2025-02-17_16h23.10.329,dg_noaudio,2024.2.1,2025-02-17 16h23.42.076147 -0500,
,,,,,,,,,,,,,,,,,,,,,,,,,,,,,,,,,,,22.862103583000135,22.92382587499742,22.92382587499742,24.595695708005223,space,1.6636565829976462,None,,,,,,,,,,,,,,,,,,,,,,,,,,,,,,,,,,,,,,,,,,,,,,,111111,001,2025-02-17_16h23.10.329,dg_noaudio,2024.2.1,2025-02-17 16h23.42.076147 -0500,
,,,,,,,,,,,,,,,,,,,,,,,,,,,,,,,,,,,,,,,,,,24.595830000005662,24.675111667005694,24.675111667005694,25.312325207996764,space,0.6331491250020918,None,,,,,,,,,,,,,,,,,,,,,,,,,,,,,,,,,,,,,,,,111111,001,2025-02-17_16h23.10.329,dg_noaudio,2024.2.1,2025-02-17 16h23.42.076147 -0500,
,,,,,,,,,,,,,,,,,,,,,,,,,,,,,,,,,,,,,,,,,,,,,,,,,25.31244012499519,25.34562883300532,25.34562883300532,27.746048707995214,y,2.388597416007542,None,,,,,,,,,,,,,,,,,,,,,,,,,,,,,,,,,111111,001,2025-02-17_16h23.10.329,dg_noaudio,2024.2.1,2025-02-17 16h23.42.076147 -0500,
,,,,,,,,,,,,,,,,,,,,,,,,,,,,,,,,,,,,,,,,,,,,,,,,,,,,,,,,27.746184375006123,27.774353874992812,27.774353874992812,43.27887520799413,space,15.495624167000642,None,,,,,,,,,,,,,,,,,,,,,,,,,,111111,001,2025-02-17_16h23.10.329,dg_noaudio,2024.2.1,2025-02-17 16h23.42.076147 -0500,
1,3,0,0,0,None,,,,,,0,0,0,0,,,,,43.356611082999734,,,,,,,,,,,,,,,,,,,,,,,,,,,,,,,,,,,,,,,,,,,,43.31352733299718,43.356611082999734,43.356611082999734,44.29292379200342,None,,,,,,,,,,,,,,,,,,,,,111111,001,2025-02-17_16h23.10.329,dg_noaudio,2024.2.1,2025-02-17 16h23.42.076147 -0500,
2,7,1,1,0,None,,,,,,0,1,1,1,,,,,44.305049792004866,,,,,,,,,,,,,,,,,,,,,,,,,,,,,,,,,,,,,,,,,,,,44.297972208005376,44.305049792004866,44.305049792004866,45.29282037500525,None,,,,,,,,,,,,,,,,,,,,,111111,001,2025-02-17_16h23.10.329,dg_noaudio,2024.2.1,2025-02-17 16h23.42.076147 -0500,
3,1,2,2,0,['3'],[0.3247947910131188],[0.14479733399639372],,,,0,2,2,2,,,,,45.306825958003174,,,,,,,,,,,,,,,,,,,,,,,,,,,,,,,,,,,,,,,,,,,,45.29892258299515,45.306825958003174,45.306825958003174,46.292937582999,['3'],[0.3247947910131188],[0.14479733399639372],,,,,,,,,,,,,,,,,,,111111,001,2025-02-17_16h23.10.329,dg_noaudio,2024.2.1,2025-02-17 16h23.42.076147 -0500,
4,8,3,3,0,['4'],[0.3157732079998823],[0.11583179200533777],,,,0,3,3,3,,,,,46.30608824999945,,,,,,,,,,,,,,,,,,,,,,,,,,,,,,,,,,,,,,,,,,,,46.29832804200123,46.30608824999945,46.30608824999945,47.293091208004626,['4'],[0.3157732079998823],[0.11583179200533777],,,,,,,,,,,,,,,,,,,111111,001,2025-02-17_16h23.10.329,dg_noaudio,2024.2.1,2025-02-17 16h23.42.076147 -0500,
5,6,4,4,0,['5'],[0.27939479099586606],[0.12533229200926144],,,,0,4,4,4,,,,,47.30735887499759,,,,,,,,,,,,,,,,,,,,,,,,,,,,,,,,,,,,,,,,,,,,47.299018417004845,47.30735887499759,47.30735887499759,48.29260904199327,['5'],[0.27939479099586606],[0.12533229200926144],,,,,,,,,,,,,,,,,,,111111,001,2025-02-17_16h23.10.329,dg_noaudio,2024.2.1,2025-02-17 16h23.42.076147 -0500,
6,4,5,5,0,None,,,,,,0,5,5,5,,,,,48.30441658299242,,,,,,,,,,,,,,,,,,,,,,,,,,,,,,,,,,,,,,,,,,,,48.296877457993105,48.30441658299242,48.30441658299242,49.292974541996955,None,,,,,,,,,,,,,,,,,,,,,111111,001,2025-02-17_16h23.10.329,dg_noaudio,2024.2.1,2025-02-17 16h23.42.076147 -0500,
7,1,6,6,0,['7'],[0.18979195899737533],[0.16094025000347756],,,,0,6,6,6,,,,,49.3061405000044,,,,,,,,,,,,,,,,,,,,,,,,,,,,,,,,,,,,,,,,,,,,49.298442083003465,49.3061405000044,49.3061405000044,50.29287520800426,['7'],[0.18979195899737533],[0.16094025000347756],,,,,,,,,,,,,,,,,,,111111,001,2025-02-17_16h23.10.329,dg_noaudio,2024.2.1,2025-02-17 16h23.42.076147 -0500,
8,8,7,7,0,"['8', '9']","[0.09452941700874362, 0.9511542079999344]","[0.12007933299173601, None]",,,,0,7,7,7,,,,,50.306172666998464,,,,,,,,,,,,,,,,,,,,,,,,,,,,,,,,,,,,,,,,,,,,50.29829162500391,50.306172666998464,50.306172666998464,51.29276033300266,"['8', '9']","[0.09452941700874362, 0.9511542079999344]","[0.12007933299173601, None]",,,,,,,,,,,,,,,,,,,111111,001,2025-02-17_16h23.10.329,dg_noaudio,2024.2.1,2025-02-17 16h23.42.076147 -0500,
9,6,8,8,0,None,,,,,,0,8,8,8,,,,,51.30436237499816,,,,,,,,,,,,,,,,,,,,,,,,,,,,,,,,,,,,,,,,,,,,51.29677020800591,51.30436237499816,51.30436237499816,52.29288487500162,None,,,,,,,,,,,,,,,,,,,,,111111,001,2025-02-17_16h23.10.329,dg_noaudio,2024.2.1,2025-02-17 16h23.42.076147 -0500,
3,4,9,9,0,['3'],[0.4556899169983808],[0.18152029199700337],,,,0,9,9,9,,,,,52.30450650000421,,,,,,,,,,,,,,,,,,,,,,,,,,,,,,,,,,,,,,,,,,,,52.2964931250026,52.30450650000421,52.30450650000421,53.292740000004414,['3'],[0.4556899169983808],[0.18152029199700337],,,,,,,,,,,,,,,,,,,111111,001,2025-02-17_16h23.10.329,dg_noaudio,2024.2.1,2025-02-17 16h23.42.076147 -0500,
4,2,10,10,0,['4'],[0.3588078330067219],[0.12863750000542495],,,,0,10,10,10,,,,,53.30449704200146,,,,,,,,,,,,,,,,,,,,,,,,,,,,,,,,,,,,,,,,,,,,53.29704233299708,53.30449704200146,53.30449704200146,54.29286204199889,['4'],[0.3588078330067219],[0.12863750000542495],,,,,,,,,,,,,,,,,,,111111,001,2025-02-17_16h23.10.329,dg_noaudio,2024.2.1,2025-02-17 16h23.42.076147 -0500,
7,5,11,11,0,['5'],[0.29136233300960157],[0.15567887500219513],,,,0,11,11,11,,,,,54.30449724999198,,,,,,,,,,,,,,,,,,,,,,,,,,,,,,,,,,,,,,,,,,,,54.29739900000277,54.30449724999198,54.30449724999198,55.29264445799345,['5'],[0.29136233300960157],[0.15567887500219513],,,,,,,,,,,,,,,,,,,111111,001,2025-02-17_16h23.10.329,dg_noaudio,2024.2.1,2025-02-17 16h23.42.076147 -0500,
3,1,12,12,0,"['4', '3']","[0.4313677499885671, 0.7684086249937536]","[0.0885919590073172, 0.08480179199250415]",,,,0,12,12,12,,,,,55.30351908299781,,,,,,,,,,,,,,,,,,,,,,,,,,,,,,,,,,,,,,,,,,,,55.29563066699484,55.30351908299781,55.30351908299781,56.29255979199661,"['4', '3']","[0.4313677499885671, 0.7684086249937536]","[0.0885919590073172, 0.08480179199250415]",,,,,,,,,,,,,,,,,,,111111,001,2025-02-17_16h23.10.329,dg_noaudio,2024.2.1,2025-02-17 16h23.42.076147 -0500,
9,8,13,13,0,['9'],[0.5586843750061234],[0.11304687500523869],,,,0,13,13,13,,,,,56.30420674999186,,,,,,,,,,,,,,,,,,,,,,,,,,,,,,,,,,,,,,,,,,,,56.29608595800528,56.30420674999186,56.30420674999186,57.29293562499515,['9'],[0.5586843750061234],[0.11304687500523869],,,,,,,,,,,,,,,,,,,111111,001,2025-02-17_16h23.10.329,dg_noaudio,2024.2.1,2025-02-17 16h23.42.076147 -0500,
3,3,14,14,0,['3'],[0.6796590000012657],[0.11702595799579285],,,,0,14,14,14,,,,,57.304307500002324,,,,,,,,,,,,,,,,,,,,,,,,,,,,,,,,,,,,,,,,,,,,57.29665324999951,57.304307500002324,57.304307500002324,58.29284083300445,['3'],[0.6796590000012657],[0.11702595799579285],,,,,,,,,,,,,,,,,,,111111,001,2025-02-17_16h23.10.329,dg_noaudio,2024.2.1,2025-02-17 16h23.42.076147 -0500,
5,7,15,15,0,['5'],[0.8800347500073258],[None],,,,0,15,15,15,,,,,58.304203292005695,,,,,,,,,,,,,,,,,,,,,,,,,,,,,,,,,,,,,,,,,,,,58.29677699999593,58.304203292005695,58.304203292005695,59.293066250000265,['5'],[0.8800347500073258],[None],,,,,,,,,,,,,,,,,,,111111,001,2025-02-17_16h23.10.329,dg_noaudio,2024.2.1,2025-02-17 16h23.42.076147 -0500,
7,2,16,16,0,['7'],[0.8966111249901587],[None],,,,0,16,16,16,,,,,59.30419087500195,,,,,,,,,,,,,,,,,,,,,,,,,,,,,,,,,,,,,,,,,,,,59.29639620799571,59.30419087500195,59.30419087500195,60.292844625000726,['7'],[0.8966111249901587],[None],,,,,,,,,,,,,,,,,,,111111,001,2025-02-17_16h23.10.329,dg_noaudio,2024.2.1,2025-02-17 16h23.42.076147 -0500,
1,9,17,17,0,None,,,,,,0,17,17,17,,,,,60.30436816699512,,,,,,,,,,,,,,,,,,,,,,,,,,,,,,,,,,,,,,,,,,,,60.29724079200241,60.30436816699512,60.30436816699512,61.292914249992464,None,,,,,,,,,,,,,,,,,,,,,111111,001,2025-02-17_16h23.10.329,dg_noaudio,2024.2.1,2025-02-17 16h23.42.076147 -0500,
2,2,18,18,0,None,,,,,,0,18,18,18,,,,,61.30441220800276,,,,,,,,,,,,,,,,,,,,,,,,,,,,,,,,,,,,,,,,,,,,61.29723587499757,61.30441220800276,61.30441220800276,62.29301412499626,None,,,,,,,,,,,,,,,,,,,,,111111,001,2025-02-17_16h23.10.329,dg_noaudio,2024.2.1,2025-02-17 16h23.42.076147 -0500,
7,5,19,19,0,['7'],[0.6427187499939464],[0.1530560420069378],,,,0,19,19,19,,,,,62.30457191700407,,,,,,,,,,,,,,,,,,,,,,,,,,,,,,,,,,,,,,,,,,,,62.297489000004134,62.30457191700407,62.30457191700407,63.29290804199991,['7'],[0.6427187499939464],[0.1530560420069378],,,,,,,,,,,,,,,,,,,111111,001,2025-02-17_16h23.10.329,dg_noaudio,2024.2.1,2025-02-17 16h23.42.076147 -0500,
8,6,20,20,0,['8'],[0.4440689160110196],[0.15653195900085848],,,,0,20,20,20,,,,,63.30422333300521,,,,,,,,,,,,,,,,,,,,,,,,,,,,,,,,,,,,,,,,,,,,63.29679591700551,63.30422333300521,63.30422333300521,64.29280837500119,['8'],[0.4440689160110196],[0.15653195900085848],,,,,,,,,,,,,,,,,,,111111,001,2025-02-17_16h23.10.329,dg_noaudio,2024.2.1,2025-02-17 16h23.42.076147 -0500,
9,4,21,21,0,['9'],[0.45038904099783394],[0.1158830839995062],,,,0,21,21,21,,,,,64.30439624999417,,,,,,,,,,,,,,,,,,,,,,,,,,,,,,,,,,,,,,,,,,,,64.29678212500585,64.30439624999417,64.30439624999417,65.29290291700454,['9'],[0.45038904099783394],[0.1158830839995062],,,,,,,,,,,,,,,,,,,111111,001,2025-02-17_16h23.10.329,dg_noaudio,2024.2.1,2025-02-17 16h23.42.076147 -0500,
2,1,22,22,0,None,,,,,,0,22,22,22,,,,,65.30438533300185,,,,,,,,,,,,,,,,,,,,,,,,,,,,,,,,,,,,,,,,,,,,65.29693866700109,65.30438533300185,65.30438533300185,66.29278766700008,None,,,,,,,,,,,,,,,,,,,,,111111,001,2025-02-17_16h23.10.329,dg_noaudio,2024.2.1,2025-02-17 16h23.42.076147 -0500,
,,,,,,,,,,,,,,,,,,,,,,,,,,,,,,,,,,,,,,,,,,,,,,,,,,,,,,,,,,,,,,,,,,,,,,66.36486891699315,66.37120624999807,66.37120624999807,70.07834666699637,space,3.7021486250014277,None,,,,,,,,,,,,111111,001,2025-02-17_16h23.10.329,dg_noaudio,2024.2.1,2025-02-17 16h23.42.076147 -0500,
1,3,0,0,0,,,,None,,,,,,,0,0,0,0,70.10678554199694,,,,,,,,,,,,,,,,,,,,,,,,,,,,,,,,,,,,,,,,,,,,,,,,,,,,,,,,,,70.09381599999324,70.10678554199694,70.10678554199694,70.59286416700343,None,,,,,,,111111,001,2025-02-17_16h23.10.329,dg_noaudio,2024.2.1,2025-02-17 16h23.42.076147 -0500,
2,7,1,1,0,,,,None,,,,,,,0,1,1,1,70.60427825000079,,,,,,,,,,,,,,,,,,,,,,,,,,,,,,,,,,,,,,,,,,,,,,,,,,,,,,,,,,70.59623300000385,70.60427825000079,70.60427825000079,71.0930589579948,None,,,,,,,111111,001,2025-02-17_16h23.10.329,dg_noaudio,2024.2.1,2025-02-17 16h23.42.076147 -0500,
3,1,2,2,0,,,,None,,,,,,,0,2,2,2,71.10424033299205,,,,,,,,,,,,,,,,,,,,,,,,,,,,,,,,,,,,,,,,,,,,,,,,,,,,,,,,,,71.0959215000039,71.10424033299205,71.10424033299205,71.5928554580023,None,,,,,,,111111,001,2025-02-17_16h23.10.329,dg_noaudio,2024.2.1,2025-02-17 16h23.42.076147 -0500,
4,8,3,3,0,,,,['7'],[0.13390987500315532],[0.08867599999939557],,,,,0,3,3,3,71.60421920800582,,,,,,,,,,,,,,,,,,,,,,,,,,,,,,,,,,,,,,,,,,,,,,,,,,,,,,,,,,71.59655533300247,71.60421920800582,71.60421920800582,72.09266087500146,['7'],[0.13390987500315532],[0.08867599999939557],,,,,111111,001,2025-02-17_16h23.10.329,dg_noaudio,2024.2.1,2025-02-17 16h23.42.076147 -0500,
5,6,4,4,0,,,,['8'],[0.2032208340096986],[0.08879087500099558],,,,,0,4,4,4,72.1047998330032,,,,,,,,,,,,,,,,,,,,,,,,,,,,,,,,,,,,,,,,,,,,,,,,,,,,,,,,,,72.09764712500328,72.1047998330032,72.1047998330032,72.59248566700262,['8'],[0.2032208340096986],[0.08879087500099558],,,,,111111,001,2025-02-17_16h23.10.329,dg_noaudio,2024.2.1,2025-02-17 16h23.42.076147 -0500,
6,4,5,5,0,,,,None,,,,,,,0,5,5,5,72.60392537500593,,,,,,,,,,,,,,,,,,,,,,,,,,,,,,,,,,,,,,,,,,,,,,,,,,,,,,,,,,72.59623341700353,72.60392537500593,72.60392537500593,73.09305325000605,None,,,,,,,111111,001,2025-02-17_16h23.10.329,dg_noaudio,2024.2.1,2025-02-17 16h23.42.076147 -0500,
7,1,6,6,0,,,,['4'],[0.36883233400294557],[None],,,,,0,6,6,6,73.10375075000047,,,,,,,,,,,,,,,,,,,,,,,,,,,,,,,,,,,,,,,,,,,,,,,,,,,,,,,,,,73.09516037499998,73.10375075000047,73.10375075000047,73.59283049999794,['4'],[0.36883233400294557],[None],,,,,111111,001,2025-02-17_16h23.10.329,dg_noaudio,2024.2.1,2025-02-17 16h23.42.076147 -0500,
8,8,7,7,0,,,,None,,,,,,,0,7,7,7,73.60746595800447,,,,,,,,,,,,,,,,,,,,,,,,,,,,,,,,,,,,,,,,,,,,,,,,,,,,,,,,,,73.59656525000173,73.60746595800447,73.60746595800447,74.09318100000382,None,,,,,,,111111,001,2025-02-17_16h23.10.329,dg_noaudio,2024.2.1,2025-02-17 16h23.42.076147 -0500,
9,6,8,8,0,,,,"['7', '8']","[0.05768787499982864, 0.09753504100081045]","[0.027563666008063592, 0.16431162500521168]",,,,,0,8,8,8,74.10473395799636,,,,,,,,,,,,,,,,,,,,,,,,,,,,,,,,,,,,,,,,,,,,,,,,,,,,,,,,,,74.09730562499317,74.10473395799636,74.10473395799636,74.59277241700329,"['7', '8']","[0.05768787499982864, 0.09753504100081045]","[0.027563666008063592, 0.16431162500521168]",,,,,111111,001,2025-02-17_16h23.10.329,dg_noaudio,2024.2.1,2025-02-17 16h23.42.076147 -0500,
3,4,9,9,0,,,,None,,,,,,,0,9,9,9,74.6038804580021,,,,,,,,,,,,,,,,,,,,,,,,,,,,,,,,,,,,,,,,,,,,,,,,,,,,,,,,,,74.59577470799559,74.6038804580021,74.6038804580021,75.09239495800284,None,,,,,,,111111,001,2025-02-17_16h23.10.329,dg_noaudio,2024.2.1,2025-02-17 16h23.42.076147 -0500,
4,2,10,10,0,,,,None,,,,,,,0,10,10,10,75.10369845799869,,,,,,,,,,,,,,,,,,,,,,,,,,,,,,,,,,,,,,,,,,,,,,,,,,,,,,,,,,75.09547333299997,75.10369845799869,75.10369845799869,75.59253712500504,None,,,,,,,111111,001,2025-02-17_16h23.10.329,dg_noaudio,2024.2.1,2025-02-17 16h23.42.076147 -0500,
7,5,11,11,0,,,,None,,,,,,,0,11,11,11,75.6041233750002,,,,,,,,,,,,,,,,,,,,,,,,,,,,,,,,,,,,,,,,,,,,,,,,,,,,,,,,,,75.5967682920018,75.6041233750002,75.6041233750002,76.09292145799554,None,,,,,,,111111,001,2025-02-17_16h23.10.329,dg_noaudio,2024.2.1,2025-02-17 16h23.42.076147 -0500,
3,1,12,12,0,,,,None,,,,,,,0,12,12,12,76.10524941699987,,,,,,,,,,,,,,,,,,,,,,,,,,,,,,,,,,,,,,,,,,,,,,,,,,,,,,,,,,76.09758883299946,76.10524941699987,76.10524941699987,76.59270300000207,None,,,,,,,111111,001,2025-02-17_16h23.10.329,dg_noaudio,2024.2.1,2025-02-17 16h23.42.076147 -0500,
9,8,13,13,0,,,,None,,,,,,,0,13,13,13,76.60406650000368,,,,,,,,,,,,,,,,,,,,,,,,,,,,,,,,,,,,,,,,,,,,,,,,,,,,,,,,,,76.59569566699793,76.60406650000368,76.60406650000368,77.09256200000527,None,,,,,,,111111,001,2025-02-17_16h23.10.329,dg_noaudio,2024.2.1,2025-02-17 16h23.42.076147 -0500,
3,3,14,14,0,,,,['8'],[0.04026108300604392],[0.09009091700136196],,,,,0,14,14,14,77.1032688330015,,,,,,,,,,,,,,,,,,,,,,,,,,,,,,,,,,,,,,,,,,,,,,,,,,,,,,,,,,77.09535795799457,77.1032688330015,77.1032688330015,77.5928997919982,['8'],[0.04026108300604392],[0.09009091700136196],,,,,111111,001,2025-02-17_16h23.10.329,dg_noaudio,2024.2.1,2025-02-17 16h23.42.076147 -0500,
5,7,15,15,0,,,,['3'],[0.17986262500926387],[0.1413164169935044],,,,,0,15,15,15,77.60440462500264,,,,,,,,,,,,,,,,,,,,,,,,,,,,,,,,,,,,,,,,,,,,,,,,,,,,,,,,,,77.59629408299224,77.60440462500264,77.60440462500264,78.09317574999295,['3'],[0.17986262500926387],[0.1413164169935044],,,,,111111,001,2025-02-17_16h23.10.329,dg_noaudio,2024.2.1,2025-02-17 16h23.42.076147 -0500,
7,2,16,16,0,,,,['5'],[0.23573445799411274],[None],,,,,0,16,16,16,78.1050777079945,,,,,,,,,,,,,,,,,,,,,,,,,,,,,,,,,,,,,,,,,,,,,,,,,,,,,,,,,,78.09755683300318,78.1050777079945,78.1050777079945,78.59281387500232,['5'],[0.23573445799411274],[None],,,,,111111,001,2025-02-17_16h23.10.329,dg_noaudio,2024.2.1,2025-02-17 16h23.42.076147 -0500,
1,9,17,17,0,,,,None,,,,,,,0,17,17,17,78.60413583299669,,,,,,,,,,,,,,,,,,,,,,,,,,,,,,,,,,,,,,,,,,,,,,,,,,,,,,,,,,78.59585937499651,78.60413583299669,78.60413583299669,79.09282545799215,None,,,,,,,111111,001,2025-02-17_16h23.10.329,dg_noaudio,2024.2.1,2025-02-17 16h23.42.076147 -0500,
2,2,18,18,0,,,,['9'],[0.09212904100422747],[0.10106391699810047],,,,,0,18,18,18,79.10440570799983,,,,,,,,,,,,,,,,,,,,,,,,,,,,,,,,,,,,,,,,,,,,,,,,,,,,,,,,,,79.09707541699754,79.10440570799983,79.10440570799983,79.59322370799782,['9'],[0.09212904100422747],[0.10106391699810047],,,,,111111,001,2025-02-17_16h23.10.329,dg_noaudio,2024.2.1,2025-02-17 16h23.42.076147 -0500,
7,5,19,19,0,,,,None,,,,,,,0,19,19,19,79.60482370799582,,,,,,,,,,,,,,,,,,,,,,,,,,,,,,,,,,,,,,,,,,,,,,,,,,,,,,,,,,79.59706587500114,79.60482370799582,79.60482370799582,80.09266537499207,None,,,,,,,111111,001,2025-02-17_16h23.10.329,dg_noaudio,2024.2.1,2025-02-17 16h23.42.076147 -0500,
8,6,20,20,0,,,,['3'],[0.4305370419897372],[None],,,,,0,20,20,20,80.10426779200498,,,,,,,,,,,,,,,,,,,,,,,,,,,,,,,,,,,,,,,,,,,,,,,,,,,,,,,,,,80.09662100000423,80.10426779200498,80.10426779200498,80.59295912500238,['3'],[0.4305370419897372],[None],,,,,111111,001,2025-02-17_16h23.10.329,dg_noaudio,2024.2.1,2025-02-17 16h23.42.076147 -0500,
9,4,21,21,0,,,,['4'],[0.03967437500250526],[0.028514000005088747],,,,,0,21,21,21,80.60664841700054,,,,,,,,,,,,,,,,,,,,,,,,,,,,,,,,,,,,,,,,,,,,,,,,,,,,,,,,,,80.59613379200164,80.60664841700054,80.60664841700054,81.09296370799711,['4'],[0.03967437500250526],[0.028514000005088747],,,,,111111,001,2025-02-17_16h23.10.329,dg_noaudio,2024.2.1,2025-02-17 16h23.42.076147 -0500,
2,1,22,22,0,,,,None,,,,,,,0,22,22,22,81.10430766700301,,,,,,,,,,,,,,,,,,,,,,,,,,,,,,,,,,,,,,,,,,,,,,,,,,,,,,,,,,81.09701475000475,81.10430766700301,81.10430766700301,81.59269016700273,None,,,,,,,111111,001,2025-02-17_16h23.10.329,dg_noaudio,2024.2.1,2025-02-17 16h23.42.076147 -0500,
0,8,23,23,0,,,,None,,,,,,,0,23,23,23,81.60407045799366,,,,,,,,,,,,,,,,,,,,,,,,,,,,,,,,,,,,,,,,,,,,,,,,,,,,,,,,,,81.59616141699371,81.60407045799366,81.60407045799366,82.09259783300513,None,,,,,,,111111,001,2025-02-17_16h23.10.329,dg_noaudio,2024.2.1,2025-02-17 16h23.42.076147 -0500,
0,3,24,24,0,,,,None,,,,,,,0,24,24,24,82.1042366670008,,,,,,,,,,,,,,,,,,,,,,,,,,,,,,,,,,,,,,,,,,,,,,,,,,,,,,,,,,82.09610100000282,82.1042366670008,82.1042366670008,82.59255625000515,None,,,,,,,111111,001,2025-02-17_16h23.10.329,dg_noaudio,2024.2.1,2025-02-17 16h23.42.076147 -0500,
0,7,25,25,0,,,,['4'],[0.12311516699264757],[0.07620962501096074],,,,,0,25,25,25,82.60363374999724,,,,,,,,,,,,,,,,,,,,,,,,,,,,,,,,,,,,,,,,,,,,,,,,,,,,,,,,,,82.59546699999191,82.60363374999724,82.60363374999724,83.08984587500163,['4'],[0.12311516699264757],[0.07620962501096074],,,,,111111,001,2025-02-17_16h23.10.329,dg_noaudio,2024.2.1,2025-02-17 16h23.42.076147 -0500,
0,2,26,26,0,,,,['7'],[0.44196608300262596],[None],,,,,0,26,26,26,83.10387883300427,,,,,,,,,,,,,,,,,,,,,,,,,,,,,,,,,,,,,,,,,,,,,,,,,,,,,,,,,,83.09425249999913,83.10387883300427,83.10387883300427,83.59276924999722,['7'],[0.44196608300262596],[None],,,,,111111,001,2025-02-17_16h23.10.329,dg_noaudio,2024.2.1,2025-02-17 16h23.42.076147 -0500,
0,5,27,27,0,,,,None,,,,,,,0,27,27,27,83.60438141699706,,,,,,,,,,,,,,,,,,,,,,,,,,,,,,,,,,,,,,,,,,,,,,,,,,,,,,,,,,83.59651141699578,83.60438141699706,83.60438141699706,84.09287116699852,None,,,,,,,111111,001,2025-02-17_16h23.10.329,dg_noaudio,2024.2.1,2025-02-17 16h23.42.076147 -0500,
0,6,28,28,0,,,,None,,,,,,,0,28,28,28,84.10419895799714,,,,,,,,,,,,,,,,,,,,,,,,,,,,,,,,,,,,,,,,,,,,,,,,,,,,,,,,,,84.0965763330023,84.10419895799714,84.10419895799714,84.59292420800193,None,,,,,,,111111,001,2025-02-17_16h23.10.329,dg_noaudio,2024.2.1,2025-02-17 16h23.42.076147 -0500,
0,4,29,29,0,,,,None,,,,,,,0,29,29,29,84.60422633300186,,,,,,,,,,,,,,,,,,,,,,,,,,,,,,,,,,,,,,,,,,,,,,,,,,,,,,,,,,84.5963870830019,84.60422633300186,84.60422633300186,85.0929964579991,None,,,,,,,111111,001,2025-02-17_16h23.10.329,dg_noaudio,2024.2.1,2025-02-17 16h23.42.076147 -0500,
0,3,30,30,0,,,,['3'],[0.23757225000008475],[0.09818341700884048],,,,,0,30,30,30,85.10483625000052,,,,,,,,,,,,,,,,,,,,,,,,,,,,,,,,,,,,,,,,,,,,,,,,,,,,,,,,,,85.09729541699926,85.10483625000052,85.10483625000052,85.59263079200173,['3'],[0.23757225000008475],[0.09818341700884048],,,,,111111,001,2025-02-17_16h23.10.329,dg_noaudio,2024.2.1,2025-02-17 16h23.42.076147 -0500,
0,7,31,31,0,,,,None,,,,,,,0,31,31,31,85.60429304199351,,,,,,,,,,,,,,,,,,,,,,,,,,,,,,,,,,,,,,,,,,,,,,,,,,,,,,,,,,85.59624466700188,85.60429304199351,85.60429304199351,86.09370691700315,None,,,,,,,111111,001,2025-02-17_16h23.10.329,dg_noaudio,2024.2.1,2025-02-17 16h23.42.076147 -0500,
0,6,32,32,0,,,,"['9', '8']","[0.2349132919916883, 0.32337095799448434]","[0.05643479099671822, 0.07599620899418369]",,,,,0,32,32,32,86.10585095800343,,,,,,,,,,,,,,,,,,,,,,,,,,,,,,,,,,,,,,,,,,,,,,,,,,,,,,,,,,86.0973671249958,86.10585095800343,86.10585095800343,86.59293791699747,"['9', '8']","[0.2349132919916883, 0.32337095799448434]","[0.05643479099671822, 0.07599620899418369]",,,,,111111,001,2025-02-17_16h23.10.329,dg_noaudio,2024.2.1,2025-02-17 16h23.42.076147 -0500,
0,4,33,33,0,,,,None,,,,,,,0,33,33,33,86.60449191699445,,,,,,,,,,,,,,,,,,,,,,,,,,,,,,,,,,,,,,,,,,,,,,,,,,,,,,,,,,86.59562795799866,86.60449191699445,86.60449191699445,87.09288854199986,None,,,,,,,111111,001,2025-02-17_16h23.10.329,dg_noaudio,2024.2.1,2025-02-17 16h23.42.076147 -0500,
0,2,34,34,0,,,,['3'],[0.12198254199756775],[0.08412829200096894],,,,,0,34,34,34,87.10449070799223,,,,,,,,,,,,,,,,,,,,,,,,,,,,,,,,,,,,,,,,,,,,,,,,,,,,,,,,,,87.09668812500604,87.10449070799223,87.10449070799223,87.59283433300152,['3'],[0.12198254199756775],[0.08412829200096894],,,,,111111,001,2025-02-17_16h23.10.329,dg_noaudio,2024.2.1,2025-02-17 16h23.42.076147 -0500,
0,5,35,35,0,,,,None,,,,,,,0,35,35,35,87.60639995799283,,,,,,,,,,,,,,,,,,,,,,,,,,,,,,,,,,,,,,,,,,,,,,,,,,,,,,,,,,87.59804041699681,87.60639995799283,87.60639995799283,88.09281491699221,None,,,,,,,111111,001,2025-02-17_16h23.10.329,dg_noaudio,2024.2.1,2025-02-17 16h23.42.076147 -0500,
0,6,36,36,0,,,,['8'],[0.17707329100812785],[0.1000683750025928],,,,,0,36,36,36,88.10442074999446,,,,,,,,,,,,,,,,,,,,,,,,,,,,,,,,,,,,,,,,,,,,,,,,,,,,,,,,,,88.09676195800421,88.10442074999446,88.10442074999446,88.59300908299338,['8'],[0.17707329100812785],[0.1000683750025928],,,,,111111,001,2025-02-17_16h23.10.329,dg_noaudio,2024.2.1,2025-02-17 16h23.42.076147 -0500,
0,4,37,37,0,,,,None,,,,,,,0,37,37,37,88.60469887500221,,,,,,,,,,,,,,,,,,,,,,,,,,,,,,,,,,,,,,,,,,,,,,,,,,,,,,,,,,88.59745679200569,88.60469887500221,88.60469887500221,89.09274491699762,None,,,,,,,111111,001,2025-02-17_16h23.10.329,dg_noaudio,2024.2.1,2025-02-17 16h23.42.076147 -0500,
0,2,38,38,0,,,,None,,,,,,,0,38,38,38,89.10424674999376,,,,,,,,,,,,,,,,,,,,,,,,,,,,,,,,,,,,,,,,,,,,,,,,,,,,,,,,,,89.09654937499727,89.10424674999376,89.10424674999376,89.59304725000402,None,,,,,,,111111,001,2025-02-17_16h23.10.329,dg_noaudio,2024.2.1,2025-02-17 16h23.42.076147 -0500,
0,5,39,39,0,,,,['5'],[0.4699446250015171],[None],,,,,0,39,39,39,89.604340417005,,,,,,,,,,,,,,,,,,,,,,,,,,,,,,,,,,,,,,,,,,,,,,,,,,,,,,,,,,89.59641537499556,89.604340417005,89.604340417005,90.08809854199353,['5'],[0.4699446250015171],[None],,,,,111111,001,2025-02-17_16h23.10.329,dg_noaudio,2024.2.1,2025-02-17 16h23.42.076147 -0500,
0,6,40,40,0,,,,None,,,,,,,0,40,40,40,90.109290124994,,,,,,,,,,,,,,,,,,,,,,,,,,,,,,,,,,,,,,,,,,,,,,,,,,,,,,,,,,90.0906327499979,90.109290124994,90.109290124994,90.59306254200055,None,,,,,,,111111,001,2025-02-17_16h23.10.329,dg_noaudio,2024.2.1,2025-02-17 16h23.42.076147 -0500,
0,4,41,41,0,,,,None,,,,,,,0,41,41,41,90.60446041700197,,,,,,,,,,,,,,,,,,,,,,,,,,,,,,,,,,,,,,,,,,,,,,,,,,,,,,,,,,90.59675875000539,90.60446041700197,90.60446041700197,91.0926935000025,None,,,,,,,111111,001,2025-02-17_16h23.10.329,dg_noaudio,2024.2.1,2025-02-17 16h23.42.076147 -0500,
0,3,42,42,0,,,,['4'],[0.0465583329932997],[0.10794387500209268],,,,,0,42,42,42,91.1041809169983,,,,,,,,,,,,,,,,,,,,,,,,,,,,,,,,,,,,,,,,,,,,,,,,,,,,,,,,,,91.09677045799617,91.1041809169983,91.1041809169983,91.59257187499315,['4'],[0.0465583329932997],[0.10794387500209268],,,,,111111,001,2025-02-17_16h23.10.329,dg_noaudio,2024.2.1,2025-02-17 16h23.42.076147 -0500,
0,7,43,43,0,,,,['3'],[None],[None],,,,,0,43,43,43,91.6038547920034,,,,,,,,,,,,,,,,,,,,,,,,,,,,,,,,,,,,,,,,,,,,,,,,,,,,,,,,,,91.59649820800405,91.6038547920034,91.6038547920034,92.09274725000432,['3'],[None],[None],,,,,111111,001,2025-02-17_16h23.10.329,dg_noaudio,2024.2.1,2025-02-17 16h23.42.076147 -0500,
0,2,44,44,0,,,,['7'],[0.12995158300327603],[0.13344237499404699],,,,,0,44,44,44,92.10364091700467,,,,,,,,,,,,,,,,,,,,,,,,,,,,,,,,,,,,,,,,,,,,,,,,,,,,,,,,,,92.09571125000366,92.10364091700467,92.10364091700467,92.59304750000592,['7'],[0.12995158300327603],[0.13344237499404699],,,,,111111,001,2025-02-17_16h23.10.329,dg_noaudio,2024.2.1,2025-02-17 16h23.42.076147 -0500,
0,5,45,45,0,,,,None,,,,,,,0,45,45,45,92.60481799999252,,,,,,,,,,,,,,,,,,,,,,,,,,,,,,,,,,,,,,,,,,,,,,,,,,,,,,,,,,92.59739845800505,92.60481799999252,92.60481799999252,93.09266249999928,None,,,,,,,111111,001,2025-02-17_16h23.10.329,dg_noaudio,2024.2.1,2025-02-17 16h23.42.076147 -0500,
0,6,46,46,0,,,,['4'],[0.09665808400313836],[0.11406891599472146],,,,,0,46,46,46,93.10430995799834,,,,,,,,,,,,,,,,,,,,,,,,,,,,,,,,,,,,,,,,,,,,,,,,,,,,,,,,,,93.09665804199176,93.10430995799834,93.10430995799834,93.59286708300351,['4'],[0.09665808400313836],[0.11406891599472146],,,,,111111,001,2025-02-17_16h23.10.329,dg_noaudio,2024.2.1,2025-02-17 16h23.42.076147 -0500,
0,4,47,47,0,,,,['5'],[0.08085154199216049],[None],,,,,0,47,47,47,93.60466041699692,,,,,,,,,,,,,,,,,,,,,,,,,,,,,,,,,,,,,,,,,,,,,,,,,,,,,,,,,,93.59727237500192,93.60466041699692,93.60466041699692,94.09279287500249,['5'],[0.08085154199216049],[None],,,,,111111,001,2025-02-17_16h23.10.329,dg_noaudio,2024.2.1,2025-02-17 16h23.42.076147 -0500,
0,1,48,48,0,,,,['3'],[0.18128900000010617],[0.12857975000224542],,,,,0,48,48,48,94.10430312500102,,,,,,,,,,,,,,,,,,,,,,,,,,,,,,,,,,,,,,,,,,,,,,,,,,,,,,,,,,94.09699433299829,94.10430312500102,94.10430312500102,94.59252237499459,['3'],[0.18128900000010617],[0.12857975000224542],,,,,111111,001,2025-02-17_16h23.10.329,dg_noaudio,2024.2.1,2025-02-17 16h23.42.076147 -0500,
0,8,49,49,0,,,,None,,,,,,,0,49,49,49,94.60439804199268,,,,,,,,,,,,,,,,,,,,,,,,,,,,,,,,,,,,,,,,,,,,,,,,,,,,,,,,,,94.59684870799538,94.60439804199268,94.60439804199268,95.09267129200452,None,,,,,,,111111,001,2025-02-17_16h23.10.329,dg_noaudio,2024.2.1,2025-02-17 16h23.42.076147 -0500,
0,3,50,50,0,,,,"['7', '8']","[0.08353891700971872, 0.1532066250074422]","[0.03260754198709037, 0.16428879200248048]",,,,,0,50,50,50,95.10448204199201,,,,,,,,,,,,,,,,,,,,,,,,,,,,,,,,,,,,,,,,,,,,,,,,,,,,,,,,,,95.09708274999866,95.10448204199201,95.10448204199201,95.59309049999865,"['7', '8']","[0.08353891700971872, 0.1532066250074422]","[0.03260754198709037, 0.16428879200248048]",,,,,111111,001,2025-02-17_16h23.10.329,dg_noaudio,2024.2.1,2025-02-17 16h23.42.076147 -0500,
0,7,51,51,0,,,,['4'],[0.22548012499464676],[0.1054861660086317],,,,,0,51,51,51,95.60529700000188,,,,,,,,,,,,,,,,,,,,,,,,,,,,,,,,,,,,,,,,,,,,,,,,,,,,,,,,,,95.59761174999585,95.60529700000188,95.60529700000188,96.09275724999316,['4'],[0.22548012499464676],[0.1054861660086317],,,,,111111,001,2025-02-17_16h23.10.329,dg_noaudio,2024.2.1,2025-02-17 16h23.42.076147 -0500,
0,1,52,52,0,,,,None,,,,,,,0,52,52,52,96.1045454999985,,,,,,,,,,,,,,,,,,,,,,,,,,,,,,,,,,,,,,,,,,,,,,,,,,,,,,,,,,96.09746429200459,96.1045454999985,96.1045454999985,96.59297737499583,None,,,,,,,111111,001,2025-02-17_16h23.10.329,dg_noaudio,2024.2.1,2025-02-17 16h23.42.076147 -0500,
0,8,53,53,0,,,,None,,,,,,,0,53,53,53,96.60418875000323,,,,,,,,,,,,,,,,,,,,,,,,,,,,,,,,,,,,,,,,,,,,,,,,,,,,,,,,,,96.59684179199394,96.60418875000323,96.60418875000323,97.09265104199585,None,,,,,,,111111,001,2025-02-17_16h23.10.329,dg_noaudio,2024.2.1,2025-02-17 16h23.42.076147 -0500,
0,6,54,54,0,,,,['8'],[0.1760012500017183],[0.11212370799330529],,,,,0,54,54,54,97.10423224999977,,,,,,,,,,,,,,,,,,,,,,,,,,,,,,,,,,,,,,,,,,,,,,,,,,,,,,,,,,97.09631170799548,97.10423224999977,97.10423224999977,97.59286020799482,['8'],[0.1760012500017183],[0.11212370799330529],,,,,111111,001,2025-02-17_16h23.10.329,dg_noaudio,2024.2.1,2025-02-17 16h23.42.076147 -0500,
0,4,55,55,0,,,,None,,,,,,,0,55,55,55,97.60467429200071,,,,,,,,,,,,,,,,,,,,,,,,,,,,,,,,,,,,,,,,,,,,,,,,,,,,,,,,,,97.59709745799773,97.60467429200071,97.60467429200071,98.09274437499698,None,,,,,,,111111,001,2025-02-17_16h23.10.329,dg_noaudio,2024.2.1,2025-02-17 16h23.42.076147 -0500,
0,3,56,56,0,,,,None,,,,,,,0,56,56,56,98.10416550000082,,,,,,,,,,,,,,,,,,,,,,,,,,,,,,,,,,,,,,,,,,,,,,,,,,,,,,,,,,98.09668854200572,98.10416550000082,98.10416550000082,98.59246733300097,None,,,,,,,111111,001,2025-02-17_16h23.10.329,dg_noaudio,2024.2.1,2025-02-17 16h23.42.076147 -0500,
0,7,57,57,0,,,,['4'],[0.11782887499430217],[0.13275729201268405],,,,,0,57,57,57,98.60406304200296,,,,,,,,,,,,,,,,,,,,,,,,,,,,,,,,,,,,,,,,,,,,,,,,,,,,,,,,,,98.59604816700448,98.60406304200296,98.60406304200296,99.09284479200142,['4'],[0.11782887499430217],[0.13275729201268405],,,,,111111,001,2025-02-17_16h23.10.329,dg_noaudio,2024.2.1,2025-02-17 16h23.42.076147 -0500,
0,6,58,58,0,,,,None,,,,,,,0,58,58,58,99.10439191700425,,,,,,,,,,,,,,,,,,,,,,,,,,,,,,,,,,,,,,,,,,,,,,,,,,,,,,,,,,99.097509291998,99.10439191700425,99.10439191700425,99.5930701670004,None,,,,,,,111111,001,2025-02-17_16h23.10.329,dg_noaudio,2024.2.1,2025-02-17 16h23.42.076147 -0500,
0,4,59,59,0,,,,None,,,,,,,0,59,59,59,99.60479899999336,,,,,,,,,,,,,,,,,,,,,,,,,,,,,,,,,,,,,,,,,,,,,,,,,,,,,,,,,,99.59745274999295,99.60479899999336,99.60479899999336,100.0926713749941,None,,,,,,,111111,001,2025-02-17_16h23.10.329,dg_noaudio,2024.2.1,2025-02-17 16h23.42.076147 -0500,
0,2,60,60,0,,,,None,,,,,,,0,60,60,60,100.1043346249935,,,,,,,,,,,,,,,,,,,,,,,,,,,,,,,,,,,,,,,,,,,,,,,,,,,,,,,,,,100.09620708299917,100.1043346249935,100.1043346249935,100.59257058300136,None,,,,,,,111111,001,2025-02-17_16h23.10.329,dg_noaudio,2024.2.1,2025-02-17 16h23.42.076147 -0500,
0,5,61,61,0,,,,None,,,,,,,0,61,61,61,100.60392566700466,,,,,,,,,,,,,,,,,,,,,,,,,,,,,,,,,,,,,,,,,,,,,,,,,,,,,,,,,,100.59566916699987,100.60392566700466,100.60392566700466,101.09264116699342,None,,,,,,,111111,001,2025-02-17_16h23.10.329,dg_noaudio,2024.2.1,2025-02-17 16h23.42.076147 -0500,
0,2,62,62,0,,,,['4'],[0.006515499990200624],[0.11295079199771862],,,,,0,62,62,62,101.10421012500592,,,,,,,,,,,,,,,,,,,,,,,,,,,,,,,,,,,,,,,,,,,,,,,,,,,,,,,,,,101.09655412500433,101.10421012500592,101.10421012500592,101.59271791699575,['4'],[0.006515499990200624],[0.11295079199771862],,,,,111111,001,2025-02-17_16h23.10.329,dg_noaudio,2024.2.1,2025-02-17 16h23.42.076147 -0500,
0,9,63,63,0,,,,None,,,,,,,0,63,63,63,101.6040531250037,,,,,,,,,,,,,,,,,,,,,,,,,,,,,,,,,,,,,,,,,,,,,,,,,,,,,,,,,,101.59630662499694,101.6040531250037,101.6040531250037,102.09238220799307,None,,,,,,,111111,001,2025-02-17_16h23.10.329,dg_noaudio,2024.2.1,2025-02-17 16h23.42.076147 -0500,
0,6,64,64,0,,,,['9'],[0.28790754100191407],[0.13874770900292788],,,,,0,64,64,64,102.1090378749941,,,,,,,,,,,,,,,,,,,,,,,,,,,,,,,,,,,,,,,,,,,,,,,,,,,,,,,,,,102.0937586670043,102.1090378749941,102.1090378749941,102.59241262500291,['9'],[0.28790754100191407],[0.13874770900292788],,,,,111111,001,2025-02-17_16h23.10.329,dg_noaudio,2024.2.1,2025-02-17 16h23.42.076147 -0500,
0,4,65,65,0,,,,None,,,,,,,0,65,65,65,102.60300937500142,,,,,,,,,,,,,,,,,,,,,,,,,,,,,,,,,,,,,,,,,,,,,,,,,,,,,,,,,,102.59517087499262,102.60300937500142,102.60300937500142,103.09253712500504,None,,,,,,,111111,001,2025-02-17_16h23.10.329,dg_noaudio,2024.2.1,2025-02-17 16h23.42.076147 -0500,
0,3,66,66,0,,,,['4'],[0.006912084005307406],[0.04464929099776782],,,,,0,66,66,66,103.10477212499245,,,,,,,,,,,,,,,,,,,,,,,,,,,,,,,,,,,,,,,,,,,,,,,,,,,,,,,,,,103.09762349999801,103.10477212499245,103.10477212499245,103.59281079200446,['4'],[0.006912084005307406],[0.04464929099776782],,,,,111111,001,2025-02-17_16h23.10.329,dg_noaudio,2024.2.1,2025-02-17 16h23.42.076147 -0500,
0,7,67,67,0,,,,['3'],[0.22411187500983942],[0.2003792909963522],,,,,0,67,67,67,103.6054907499929,,,,,,,,,,,,,,,,,,,,,,,,,,,,,,,,,,,,,,,,,,,,,,,,,,,,,,,,,,103.59747095800412,103.6054907499929,103.6054907499929,104.09272512499592,['3'],[0.22411187500983942],[0.2003792909963522],,,,,111111,001,2025-02-17_16h23.10.329,dg_noaudio,2024.2.1,2025-02-17 16h23.42.076147 -0500,
0,1,68,68,0,,,,['7'],[0.2529840420029359],[0.14042270799109247],,,,,0,68,68,68,104.10430629199254,,,,,,,,,,,,,,,,,,,,,,,,,,,,,,,,,,,,,,,,,,,,,,,,,,,,,,,,,,104.09688412499963,104.10430629199254,104.10430629199254,104.59290062499349,['7'],[0.2529840420029359],[0.14042270799109247],,,,,111111,001,2025-02-17_16h23.10.329,dg_noaudio,2024.2.1,2025-02-17 16h23.42.076147 -0500,
0,8,69,69,0,,,,None,,,,,,,0,69,69,69,104.6051070829999,,,,,,,,,,,,,,,,,,,,,,,,,,,,,,,,,,,,,,,,,,,,,,,,,,,,,,,,,,104.59759537500213,104.6051070829999,104.6051070829999,105.09308095800225,None,,,,,,,111111,001,2025-02-17_16h23.10.329,dg_noaudio,2024.2.1,2025-02-17 16h23.42.076147 -0500,
0,3,70,70,0,,,,['8'],[0.11691374999645632],[0.10819033300504088],,,,,0,70,70,70,105.10562570800539,,,,,,,,,,,,,,,,,,,,,,,,,,,,,,,,,,,,,,,,,,,,,,,,,,,,,,,,,,105.0970950829942,105.10562570800539,105.10562570800539,105.59303575000376,['8'],[0.11691374999645632],[0.10819033300504088],,,,,111111,001,2025-02-17_16h23.10.329,dg_noaudio,2024.2.1,2025-02-17 16h23.42.076147 -0500,
0,7,71,71,0,,,,['3'],[0.17058379200170748],[0.11981316600576974],,,,,0,71,71,71,105.6049221669964,,,,,,,,,,,,,,,,,,,,,,,,,,,,,,,,,,,,,,,,,,,,,,,,,,,,,,,,,,105.59715070799575,105.6049221669964,105.6049221669964,106.09294641700399,['3'],[0.17058379200170748],[0.11981316600576974],,,,,111111,001,2025-02-17_16h23.10.329,dg_noaudio,2024.2.1,2025-02-17 16h23.42.076147 -0500,
0,6,72,72,0,,,,"['8', '7']","[0.34759112499887124, 0.42477479099761695]","[0.08448337500158232, None]",,,,,0,72,72,72,106.10458050000307,,,,,,,,,,,,,,,,,,,,,,,,,,,,,,,,,,,,,,,,,,,,,,,,,,,,,,,,,,106.09743933299615,106.10458050000307,106.10458050000307,106.59243479199358,"['8', '7']","[0.34759112499887124, 0.42477479099761695]","[0.08448337500158232, None]",,,,,111111,001,2025-02-17_16h23.10.329,dg_noaudio,2024.2.1,2025-02-17 16h23.42.076147 -0500,
0,4,73,73,0,,,,None,,,,,,,0,73,73,73,106.60407991700049,,,,,,,,,,,,,,,,,,,,,,,,,,,,,,,,,,,,,,,,,,,,,,,,,,,,,,,,,,106.59589066699846,106.60407991700049,106.60407991700049,107.09245954199287,None,,,,,,,111111,001,2025-02-17_16h23.10.329,dg_noaudio,2024.2.1,2025-02-17 16h23.42.076147 -0500,
0,1,74,74,0,,,,None,,,,,,,0,74,74,74,107.10323875000176,,,,,,,,,,,,,,,,,,,,,,,,,,,,,,,,,,,,,,,,,,,,,,,,,,,,,,,,,,107.09523083300155,107.10323875000176,107.10323875000176,107.59279241699551,None,,,,,,,111111,001,2025-02-17_16h23.10.329,dg_noaudio,2024.2.1,2025-02-17 16h23.42.076147 -0500,
0,8,75,75,0,,,,None,,,,,,,0,75,75,75,107.6040498749935,,,,,,,,,,,,,,,,,,,,,,,,,,,,,,,,,,,,,,,,,,,,,,,,,,,,,,,,,,107.59638491699297,107.6040498749935,107.6040498749935,108.09271020800225,None,,,,,,,111111,001,2025-02-17_16h23.10.329,dg_noaudio,2024.2.1,2025-02-17 16h23.42.076147 -0500,
0,6,76,76,0,,,,None,,,,,,,0,76,76,76,108.10421599999245,,,,,,,,,,,,,,,,,,,,,,,,,,,,,,,,,,,,,,,,,,,,,,,,,,,,,,,,,,108.09654079200118,108.10421599999245,108.10421599999245,108.59287274999951,None,,,,,,,111111,001,2025-02-17_16h23.10.329,dg_noaudio,2024.2.1,2025-02-17 16h23.42.076147 -0500,
0,4,77,77,0,,,,None,,,,,,,0,77,77,77,108.60478583299846,,,,,,,,,,,,,,,,,,,,,,,,,,,,,,,,,,,,,,,,,,,,,,,,,,,,,,,,,,108.59745933300292,108.60478583299846,108.60478583299846,109.09289483299654,None,,,,,,,111111,001,2025-02-17_16h23.10.329,dg_noaudio,2024.2.1,2025-02-17 16h23.42.076147 -0500,
0,2,78,78,0,,,,['4'],[0.17055270800483413],[0.15195670899993274],,,,,0,78,78,78,109.10605333300191,,,,,,,,,,,,,,,,,,,,,,,,,,,,,,,,,,,,,,,,,,,,,,,,,,,,,,,,,,109.09765904200322,109.10605333300191,109.10605333300191,109.59279262500058,['4'],[0.17055270800483413],[0.15195670899993274],,,,,111111,001,2025-02-17_16h23.10.329,dg_noaudio,2024.2.1,2025-02-17 16h23.42.076147 -0500,
0,9,79,79,0,,,,None,,,,,,,0,79,79,79,109.60438345800503,,,,,,,,,,,,,,,,,,,,,,,,,,,,,,,,,,,,,,,,,,,,,,,,,,,,,,,,,,109.59632354200585,109.60438345800503,109.60438345800503,110.09261641699413,None,,,,,,,111111,001,2025-02-17_16h23.10.329,dg_noaudio,2024.2.1,2025-02-17 16h23.42.076147 -0500,
0,6,80,80,0,,,,['9'],[0.057138250005664304],[0.10823974999948405],,,,,0,80,80,80,110.10398670799623,,,,,,,,,,,,,,,,,,,,,,,,,,,,,,,,,,,,,,,,,,,,,,,,,,,,,,,,,,110.09692112500488,110.10398670799623,110.10398670799623,110.59271679200174,['9'],[0.057138250005664304],[0.10823974999948405],,,,,111111,001,2025-02-17_16h23.10.329,dg_noaudio,2024.2.1,2025-02-17 16h23.42.076147 -0500,
0,4,81,81,0,,,,['9'],[0.4344520840095356],[None],,,,,0,81,81,81,110.60449441699893,,,,,,,,,,,,,,,,,,,,,,,,,,,,,,,,,,,,,,,,,,,,,,,,,,,,,,,,,,110.59716274999664,110.60449441699893,110.60449441699893,111.09258295799373,['9'],[0.4344520840095356],[None],,,,,111111,001,2025-02-17_16h23.10.329,dg_noaudio,2024.2.1,2025-02-17 16h23.42.076147 -0500,
0,1,82,82,0,,,,['4'],[0.027900750006665476],[0.09315137499652337],,,,,0,82,82,82,111.10575220799365,,,,,,,,,,,,,,,,,,,,,,,,,,,,,,,,,,,,,,,,,,,,,,,,,,,,,,,,,,111.09549566700298,111.10575220799365,111.10575220799365,111.59259404199838,['4'],[0.027900750006665476],[0.09315137499652337],,,,,111111,001,2025-02-17_16h23.10.329,dg_noaudio,2024.2.1,2025-02-17 16h23.42.076147 -0500,
0,8,83,83,0,,,,None,,,,,,,0,83,83,83,111.60302354200394,,,,,,,,,,,,,,,,,,,,,,,,,,,,,,,,,,,,,,,,,,,,,,,,,,,,,,,,,,111.59538366699417,111.60302354200394,111.60302354200394,112.09266724999179,None,,,,,,,111111,001,2025-02-17_16h23.10.329,dg_noaudio,2024.2.1,2025-02-17 16h23.42.076147 -0500,
0,6,84,84,0,,,,['8'],[0.03176704200450331],[0.10035620800044853],,,,,0,84,84,84,112.10518825000327,,,,,,,,,,,,,,,,,,,,,,,,,,,,,,,,,,,,,,,,,,,,,,,,,,,,,,,,,,112.09691262499837,112.10518825000327,112.10518825000327,112.59278520800581,['8'],[0.03176704200450331],[0.10035620800044853],,,,,111111,001,2025-02-17_16h23.10.329,dg_noaudio,2024.2.1,2025-02-17 16h23.42.076147 -0500,
0,4,85,85,0,,,,None,,,,,,,0,85,85,85,112.60384466699907,,,,,,,,,,,,,,,,,,,,,,,,,,,,,,,,,,,,,,,,,,,,,,,,,,,,,,,,,,112.59586345800199,112.60384466699907,112.60384466699907,113.09274858300341,None,,,,,,,111111,001,2025-02-17_16h23.10.329,dg_noaudio,2024.2.1,2025-02-17 16h23.42.076147 -0500,
0,2,86,86,0,,,,['4'],[0.02997599999071099],[0.09344574999704491],,,,,0,86,86,86,113.10417175000475,,,,,,,,,,,,,,,,,,,,,,,,,,,,,,,,,,,,,,,,,,,,,,,,,,,,,,,,,,113.09670291699877,113.10417175000475,113.10417175000475,113.59259537499747,['4'],[0.02997599999071099],[0.09344574999704491],,,,,111111,001,2025-02-17_16h23.10.329,dg_noaudio,2024.2.1,2025-02-17 16h23.42.076147 -0500,
0,5,87,87,0,,,,None,,,,,,,0,87,87,87,113.60428937499819,,,,,,,,,,,,,,,,,,,,,,,,,,,,,,,,,,,,,,,,,,,,,,,,,,,,,,,,,,113.59587345800537,113.60428937499819,113.60428937499819,114.09320254200429,None,,,,,,,111111,001,2025-02-17_16h23.10.329,dg_noaudio,2024.2.1,2025-02-17 16h23.42.076147 -0500,
0,1,88,88,0,,,,['5'],[0.08045875000243541],[None],,,,,0,88,88,88,114.10457279199909,,,,,,,,,,,,,,,,,,,,,,,,,,,,,,,,,,,,,,,,,,,,,,,,,,,,,,,,,,114.096662750002,114.10457279199909,114.10457279199909,114.59285308299877,['5'],[0.08045875000243541],[None],,,,,111111,001,2025-02-17_16h23.10.329,dg_noaudio,2024.2.1,2025-02-17 16h23.42.076147 -0500,
0,8,89,89,0,,,,None,,,,,,,0,89,89,89,114.60548874999222,,,,,,,,,,,,,,,,,,,,,,,,,,,,,,,,,,,,,,,,,,,,,,,,,,,,,,,,,,114.59765737499401,114.60548874999222,114.60548874999222,115.09279629199591,None,,,,,,,111111,001,2025-02-17_16h23.10.329,dg_noaudio,2024.2.1,2025-02-17 16h23.42.076147 -0500,
0,1,90,90,0,,,,['8'],[0.0788644580024993],[0.10253570800705347],,,,,0,90,90,90,115.10450391699851,,,,,,,,,,,,,,,,,,,,,,,,,,,,,,,,,,,,,,,,,,,,,,,,,,,,,,,,,,115.09700333299406,115.10450391699851,115.10450391699851,115.59293987500132,['8'],[0.0788644580024993],[0.10253570800705347],,,,,111111,001,2025-02-17_16h23.10.329,dg_noaudio,2024.2.1,2025-02-17 16h23.42.076147 -0500,
0,8,91,91,0,,,,['8'],[0.4702675839944277],[None],,,,,0,91,91,91,115.6039896250004,,,,,,,,,,,,,,,,,,,,,,,,,,,,,,,,,,,,,,,,,,,,,,,,,,,,,,,,,,115.59622116699757,115.6039896250004,115.6039896250004,116.0892114169983,['8'],[0.4702675839944277],[None],,,,,111111,001,2025-02-17_16h23.10.329,dg_noaudio,2024.2.1,2025-02-17 16h23.42.076147 -0500,
0,2,92,92,0,,,,None,,,,,,,0,92,92,92,116.1092660419963,,,,,,,,,,,,,,,,,,,,,,,,,,,,,,,,,,,,,,,,,,,,,,,,,,,,,,,,,,116.09177433299192,116.1092660419963,116.1092660419963,116.59302874999412,None,,,,,,,111111,001,2025-02-17_16h23.10.329,dg_noaudio,2024.2.1,2025-02-17 16h23.42.076147 -0500,
0,9,93,93,0,,,,None,,,,,,,0,93,93,93,116.60829995799577,,,,,,,,,,,,,,,,,,,,,,,,,,,,,,,,,,,,,,,,,,,,,,,,,,,,,,,,,,116.59587683300197,116.60829995799577,116.60829995799577,117.09258729200519,None,,,,,,,111111,001,2025-02-17_16h23.10.329,dg_noaudio,2024.2.1,2025-02-17 16h23.42.076147 -0500,
0,1,94,94,0,,,,['9'],[0.14611095799773466],[0.1449938340083463],,,,,0,94,94,94,117.10942700000305,,,,,,,,,,,,,,,,,,,,,,,,,,,,,,,,,,,,,,,,,,,,,,,,,,,,,,,,,,117.09420649999811,117.10942700000305,117.10942700000305,117.59257216699189,['9'],[0.14611095799773466],[0.1449938340083463],,,,,111111,001,2025-02-17_16h23.10.329,dg_noaudio,2024.2.1,2025-02-17 16h23.42.076147 -0500,
0,8,95,95,0,,,,None,,,,,,,0,95,95,95,117.60432975000003,,,,,,,,,,,,,,,,,,,,,,,,,,,,,,,,,,,,,,,,,,,,,,,,,,,,,,,,,,117.5969729579956,117.60432975000003,117.60432975000003,118.09253949999402,None,,,,,,,111111,001,2025-02-17_16h23.10.329,dg_noaudio,2024.2.1,2025-02-17 16h23.42.076147 -0500,
0,3,96,96,0,,,,['8'],[0.02441529200586956],[0.14390774999628775],,,,,0,96,96,96,118.10312495799735,,,,,,,,,,,,,,,,,,,,,,,,,,,,,,,,,,,,,,,,,,,,,,,,,,,,,,,,,,118.09543775000202,118.10312495799735,118.10312495799735,118.59260170800553,['8'],[0.02441529200586956],[0.14390774999628775],,,,,111111,001,2025-02-17_16h23.10.329,dg_noaudio,2024.2.1,2025-02-17 16h23.42.076147 -0500,
0,7,97,97,0,,,,['4'],[0.13794800000323448],[0.18051820900291204],,,,,0,97,97,97,118.60657524999988,,,,,,,,,,,,,,,,,,,,,,,,,,,,,,,,,,,,,,,,,,,,,,,,,,,,,,,,,,118.59878162499808,118.60657524999988,118.60657524999988,119.09268545800296,['4'],[0.13794800000323448],[0.18051820900291204],,,,,111111,001,2025-02-17_16h23.10.329,dg_noaudio,2024.2.1,2025-02-17 16h23.42.076147 -0500,
0,6,98,98,0,,,,None,,,,,,,0,98,98,98,119.10408241700497,,,,,,,,,,,,,,,,,,,,,,,,,,,,,,,,,,,,,,,,,,,,,,,,,,,,,,,,,,119.09631279199675,119.10408241700497,119.10408241700497,119.59298770800524,None,,,,,,,111111,001,2025-02-17_16h23.10.329,dg_noaudio,2024.2.1,2025-02-17 16h23.42.076147 -0500,
0,4,99,99,0,,,,None,,,,,,,0,99,99,99,119.60450899999705,,,,,,,,,,,,,,,,,,,,,,,,,,,,,,,,,,,,,,,,,,,,,,,,,,,,,,,,,,119.5959715420031,119.60450899999705,119.60450899999705,120.09266058300273,None,,,,,,,111111,001,2025-02-17_16h23.10.329,dg_noaudio,2024.2.1,2025-02-17 16h23.42.076147 -0500,
0,1,100,100,0,,,,None,,,,,,,0,100,100,100,120.1044659170002,,,,,,,,,,,,,,,,,,,,,,,,,,,,,,,,,,,,,,,,,,,,,,,,,,,,,,,,,,120.09675454199896,120.1044659170002,120.1044659170002,120.59276791699813,None,,,,,,,111111,001,2025-02-17_16h23.10.329,dg_noaudio,2024.2.1,2025-02-17 16h23.42.076147 -0500,
0,8,101,101,0,,,,None,,,,,,,0,101,101,101,120.60451491699496,,,,,,,,,,,,,,,,,,,,,,,,,,,,,,,,,,,,,,,,,,,,,,,,,,,,,,,,,,120.59713654199732,120.60451491699496,120.60451491699496,121.09271591699508,None,,,,,,,111111,001,2025-02-17_16h23.10.329,dg_noaudio,2024.2.1,2025-02-17 16h23.42.076147 -0500,
0,2,102,102,0,,,,['8'],[0.006833749997895211],[0.0979424580000341],,,,,0,102,102,102,121.10395562500344,,,,,,,,,,,,,,,,,,,,,,,,,,,,,,,,,,,,,,,,,,,,,,,,,,,,,,,,,,121.09640087500156,121.10395562500344,121.10395562500344,121.59217854199233,['8'],[0.006833749997895211],[0.0979424580000341],,,,,111111,001,2025-02-17_16h23.10.329,dg_noaudio,2024.2.1,2025-02-17 16h23.42.076147 -0500,
0,9,103,103,0,,,,['4'],[0.26728770800400525],[0.09283716700156219],,,,,0,103,103,103,121.60407225000381,,,,,,,,,,,,,,,,,,,,,,,,,,,,,,,,,,,,,,,,,,,,,,,,,,,,,,,,,,121.59579150000354,121.60407225000381,121.60407225000381,122.0925569999963,['4'],[0.26728770800400525],[0.09283716700156219],,,,,111111,001,2025-02-17_16h23.10.329,dg_noaudio,2024.2.1,2025-02-17 16h23.42.076147 -0500,
0,1,104,104,0,,,,['9'],[0.14278399999602698],[0.08389949999400415],,,,,0,104,104,104,122.10419895799714,,,,,,,,,,,,,,,,,,,,,,,,,,,,,,,,,,,,,,,,,,,,,,,,,,,,,,,,,,122.09600562500418,122.10419895799714,122.10419895799714,122.59266091699828,['9'],[0.14278399999602698],[0.08389949999400415],,,,,111111,001,2025-02-17_16h23.10.329,dg_noaudio,2024.2.1,2025-02-17 16h23.42.076147 -0500,
0,8,105,105,0,,,,None,,,,,,,0,105,105,105,122.70705804199679,,,,,,,,,,,,,,,,,,,,,,,,,,,,,,,,,,,,,,,,,,,,,,,,,,,,,,,,,,122.70114387500507,122.70705804199679,122.70705804199679,123.09320791700156,None,,,,,,,111111,001,2025-02-17_16h23.10.329,dg_noaudio,2024.2.1,2025-02-17 16h23.42.076147 -0500,
0,3,106,106,0,,,,['8'],[0.15553274999547284],[0.08850095800880808],,,,,0,106,106,106,123.10389341699192,,,,,,,,,,,,,,,,,,,,,,,,,,,,,,,,,,,,,,,,,,,,,,,,,,,,,,,,,,123.09645404199546,123.10389341699192,123.10389341699192,123.59278966700367,['8'],[0.15553274999547284],[0.08850095800880808],,,,,111111,001,2025-02-17_16h23.10.329,dg_noaudio,2024.2.1,2025-02-17 16h23.42.076147 -0500,
0,7,107,107,0,,,,['3'],[0.3529442500002915],[None],,,,,0,107,107,107,123.60324608300289,,,,,,,,,,,,,,,,,,,,,,,,,,,,,,,,,,,,,,,,,,,,,,,,,,,,,,,,,,123.59533404199465,123.60324608300289,123.60324608300289,124.09256662499683,['3'],[0.3529442500002915],[None],,,,,111111,001,2025-02-17_16h23.10.329,dg_noaudio,2024.2.1,2025-02-17 16h23.42.076147 -0500,
0,6,108,108,0,,,,['7'],[0.43124120800348464],[None],,,,,0,108,108,108,124.10662525000225,,,,,,,,,,,,,,,,,,,,,,,,,,,,,,,,,,,,,,,,,,,,,,,,,,,,,,,,,,124.09612862499489,124.10662525000225,124.10662525000225,124.59247516699543,['7'],[0.43124120800348464],[None],,,,,111111,001,2025-02-17_16h23.10.329,dg_noaudio,2024.2.1,2025-02-17 16h23.42.076147 -0500,
0,4,109,109,0,,,,None,,,,,,,0,109,109,109,124.60335791700345,,,,,,,,,,,,,,,,,,,,,,,,,,,,,,,,,,,,,,,,,,,,,,,,,,,,,,,,,,124.59515258300235,124.60335791700345,124.60335791700345,125.09239645799971,None,,,,,,,111111,001,2025-02-17_16h23.10.329,dg_noaudio,2024.2.1,2025-02-17 16h23.42.076147 -0500,
0,3,110,110,0,,,,None,,,,,,,0,110,110,110,125.10410204199434,,,,,,,,,,,,,,,,,,,,,,,,,,,,,,,,,,,,,,,,,,,,,,,,,,,,,,,,,,125.09646766699734,125.10410204199434,125.10410204199434,125.59253029199317,None,,,,,,,111111,001,2025-02-17_16h23.10.329,dg_noaudio,2024.2.1,2025-02-17 16h23.42.076147 -0500,
0,7,111,111,0,,,,['3'],[0.18439358299656305],[0.09666875000402797],,,,,0,111,111,111,125.60261929199623,,,,,,,,,,,,,,,,,,,,,,,,,,,,,,,,,,,,,,,,,,,,,,,,,,,,,,,,,,125.59513899999729,125.60261929199623,125.60261929199623,126.09249166700465,['3'],[0.18439358299656305],[0.09666875000402797],,,,,111111,001,2025-02-17_16h23.10.329,dg_noaudio,2024.2.1,2025-02-17 16h23.42.076147 -0500,
0,2,112,112,0,,,,['8'],[0.3073354579973966],[0.07661599999119062],,,,,0,112,112,112,126.1038732080051,,,,,,,,,,,,,,,,,,,,,,,,,,,,,,,,,,,,,,,,,,,,,,,,,,,,,,,,,,126.09561791700253,126.1038732080051,126.1038732080051,126.592350292005,['8'],[0.3073354579973966],[0.07661599999119062],,,,,111111,001,2025-02-17_16h23.10.329,dg_noaudio,2024.2.1,2025-02-17 16h23.42.076147 -0500,
0,9,113,113,0,,,,None,,,,,,,0,113,113,113,126.60395908300416,,,,,,,,,,,,,,,,,,,,,,,,,,,,,,,,,,,,,,,,,,,,,,,,,,,,,,,,,,126.59643233299721,126.60395908300416,126.60395908300416,127.09235216700472,None,,,,,,,111111,001,2025-02-17_16h23.10.329,dg_noaudio,2024.2.1,2025-02-17 16h23.42.076147 -0500,
0,3,114,114,0,,,,['9'],[0.3070080000034068],[0.11699395799951162],,,,,0,114,114,114,127.10302216699347,,,,,,,,,,,,,,,,,,,,,,,,,,,,,,,,,,,,,,,,,,,,,,,,,,,,,,,,,,127.09513870799856,127.10302216699347,127.10302216699347,127.59222512500128,['9'],[0.3070080000034068],[0.11699395799951162],,,,,111111,001,2025-02-17_16h23.10.329,dg_noaudio,2024.2.1,2025-02-17 16h23.42.076147 -0500,
0,7,115,115,0,,,,None,,,,,,,0,115,115,115,127.60293108300539,,,,,,,,,,,,,,,,,,,,,,,,,,,,,,,,,,,,,,,,,,,,,,,,,,,,,,,,,,127.59511437499896,127.60293108300539,127.60293108300539,128.09247120800137,None,,,,,,,111111,001,2025-02-17_16h23.10.329,dg_noaudio,2024.2.1,2025-02-17 16h23.42.076147 -0500,
0,2,116,116,0,,,,['7'],[0.1405164580064593],[0.1393826249986887],,,,,0,116,116,116,128.1039302499994,,,,,,,,,,,,,,,,,,,,,,,,,,,,,,,,,,,,,,,,,,,,,,,,,,,,,,,,,,128.09593070800474,128.1039302499994,128.1039302499994,128.5926589169976,['7'],[0.1405164580064593],[0.1393826249986887],,,,,111111,001,2025-02-17_16h23.10.329,dg_noaudio,2024.2.1,2025-02-17 16h23.42.076147 -0500,
0,5,117,117,0,,,,None,,,,,,,0,117,117,117,128.6049172500061,,,,,,,,,,,,,,,,,,,,,,,,,,,,,,,,,,,,,,,,,,,,,,,,,,,,,,,,,,128.59710499999346,128.6049172500061,128.6049172500061,129.09260745800566,None,,,,,,,111111,001,2025-02-17_16h23.10.329,dg_noaudio,2024.2.1,2025-02-17 16h23.42.076147 -0500,
0,3,118,118,0,,,,None,,,,,,,0,118,118,118,129.1038574169943,,,,,,,,,,,,,,,,,,,,,,,,,,,,,,,,,,,,,,,,,,,,,,,,,,,,,,,,,,129.09685670799809,129.1038574169943,129.1038574169943,129.59296924999217,None,,,,,,,111111,001,2025-02-17_16h23.10.329,dg_noaudio,2024.2.1,2025-02-17 16h23.42.076147 -0500,
0,7,119,119,0,,,,['3'],[0.10480087500764057],[0.10069074999773875],,,,,0,119,119,119,129.6040557499946,,,,,,,,,,,,,,,,,,,,,,,,,,,,,,,,,,,,,,,,,,,,,,,,,,,,,,,,,,129.59580508299405,129.6040557499946,129.6040557499946,130.0924282079941,['3'],[0.10480087500764057],[0.10069074999773875],,,,,111111,001,2025-02-17_16h23.10.329,dg_noaudio,2024.2.1,2025-02-17 16h23.42.076147 -0500,
0,6,120,120,0,,,,['7'],[0.18016087499563582],[0.0920943340024678],,,,,0,120,120,120,130.1036991669971,,,,,,,,,,,,,,,,,,,,,,,,,,,,,,,,,,,,,,,,,,,,,,,,,,,,,,,,,,130.09574795799563,130.1036991669971,130.1036991669971,130.59274954200373,['7'],[0.18016087499563582],[0.0920943340024678],,,,,111111,001,2025-02-17_16h23.10.329,dg_noaudio,2024.2.1,2025-02-17 16h23.42.076147 -0500,
0,4,121,121,0,,,,None,,,,,,,0,121,121,121,130.60478104199865,,,,,,,,,,,,,,,,,,,,,,,,,,,,,,,,,,,,,,,,,,,,,,,,,,,,,,,,,,130.59731116700277,130.60478104199865,130.60478104199865,131.0925999579922,None,,,,,,,111111,001,2025-02-17_16h23.10.329,dg_noaudio,2024.2.1,2025-02-17 16h23.42.076147 -0500,
0,1,122,122,0,,,,None,,,,,,,0,122,122,122,131.1039589169959,,,,,,,,,,,,,,,,,,,,,,,,,,,,,,,,,,,,,,,,,,,,,,,,,,,,,,,,,,131.09638033299416,131.1039589169959,131.1039589169959,131.59297537499515,None,,,,,,,111111,001,2025-02-17_16h23.10.329,dg_noaudio,2024.2.1,2025-02-17 16h23.42.076147 -0500,
0,8,123,123,0,,,,None,,,,,,,0,123,123,123,131.6042427920038,,,,,,,,,,,,,,,,,,,,,,,,,,,,,,,,,,,,,,,,,,,,,,,,,,,,,,,,,,131.59623679200013,131.6042427920038,131.6042427920038,132.0925178329926,None,,,,,,,111111,001,2025-02-17_16h23.10.329,dg_noaudio,2024.2.1,2025-02-17 16h23.42.076147 -0500,
0,2,124,124,0,,,,['8'],[0.031016667009680532],[0.09263449998979922],,,,,0,124,124,124,132.10408299999835,,,,,,,,,,,,,,,,,,,,,,,,,,,,,,,,,,,,,,,,,,,,,,,,,,,,,,,,,,132.09636033300194,132.10408299999835,132.10408299999835,132.59280366699386,['8'],[0.031016667009680532],[0.09263449998979922],,,,,111111,001,2025-02-17_16h23.10.329,dg_noaudio,2024.2.1,2025-02-17 16h23.42.076147 -0500,
0,9,125,125,0,,,,['9'],[0.46392695799295325],[None],,,,,0,125,125,125,132.60628179200285,,,,,,,,,,,,,,,,,,,,,,,,,,,,,,,,,,,,,,,,,,,,,,,,,,,,,,,,,,132.59801866700582,132.60628179200285,132.60628179200285,133.08948054199573,['9'],[0.46392695799295325],[None],,,,,111111,001,2025-02-17_16h23.10.329,dg_noaudio,2024.2.1,2025-02-17 16h23.42.076147 -0500,
0,3,126,126,0,,,,None,,,,,,,0,126,126,126,133.10904962499626,,,,,,,,,,,,,,,,,,,,,,,,,,,,,,,,,,,,,,,,,,,,,,,,,,,,,,,,,,133.09201449999819,133.10904962499626,133.10904962499626,133.5925255829934,None,,,,,,,111111,001,2025-02-17_16h23.10.329,dg_noaudio,2024.2.1,2025-02-17 16h23.42.076147 -0500,
0,7,127,127,0,,,,['3'],[0.08675662499445025],[0.1271309160074452],,,,,0,127,127,127,133.60377320800035,,,,,,,,,,,,,,,,,,,,,,,,,,,,,,,,,,,,,,,,,,,,,,,,,,,,,,,,,,133.59637099999236,133.60377320800035,133.60377320800035,134.09251895800116,['3'],[0.08675662499445025],[0.1271309160074452],,,,,111111,001,2025-02-17_16h23.10.329,dg_noaudio,2024.2.1,2025-02-17 16h23.42.076147 -0500,
0,6,128,128,0,,,,['7'],[0.18164795900520403],[0.14019279099011328],,,,,0,128,128,128,134.1040391669958,,,,,,,,,,,,,,,,,,,,,,,,,,,,,,,,,,,,,,,,,,,,,,,,,,,,,,,,,,134.09679591699387,134.1040391669958,134.1040391669958,134.5929177920043,['7'],[0.18164795900520403],[0.14019279099011328],,,,,111111,001,2025-02-17_16h23.10.329,dg_noaudio,2024.2.1,2025-02-17 16h23.42.076147 -0500,
0,4,129,129,0,,,,None,,,,,,,0,129,129,129,134.6043137079978,,,,,,,,,,,,,,,,,,,,,,,,,,,,,,,,,,,,,,,,,,,,,,,,,,,,,,,,,,134.59679841699835,134.6043137079978,134.6043137079978,135.08748775000277,None,,,,,,,111111,001,2025-02-17_16h23.10.329,dg_noaudio,2024.2.1,2025-02-17 16h23.42.076147 -0500,
0,3,130,130,0,,,,['5'],[0.04825162500492297],[None],,,,,0,130,130,130,135.1089389169938,,,,,,,,,,,,,,,,,,,,,,,,,,,,,,,,,,,,,,,,,,,,,,,,,,,,,,,,,,135.08892912500596,135.1089389169938,135.1089389169938,135.59276304200466,['5'],[0.04825162500492297],[None],,,,,111111,001,2025-02-17_16h23.10.329,dg_noaudio,2024.2.1,2025-02-17 16h23.42.076147 -0500,
0,7,131,131,0,,,,None,,,,,,,0,131,131,131,135.6040299580054,,,,,,,,,,,,,,,,,,,,,,,,,,,,,,,,,,,,,,,,,,,,,,,,,,,,,,,,,,135.5960781670001,135.6040299580054,135.6040299580054,136.09250245799194,None,,,,,,,111111,001,2025-02-17_16h23.10.329,dg_noaudio,2024.2.1,2025-02-17 16h23.42.076147 -0500,
0,2,132,132,0,,,,None,,,,,,,0,132,132,132,136.10407370800385,,,,,,,,,,,,,,,,,,,,,,,,,,,,,,,,,,,,,,,,,,,,,,,,,,,,,,,,,,136.09640666699852,136.10407370800385,136.10407370800385,136.59259862499312,None,,,,,,,111111,001,2025-02-17_16h23.10.329,dg_noaudio,2024.2.1,2025-02-17 16h23.42.076147 -0500,
0,5,133,133,0,,,,None,,,,,,,0,133,133,133,136.60400079199462,,,,,,,,,,,,,,,,,,,,,,,,,,,,,,,,,,,,,,,,,,,,,,,,,,,,,,,,,,136.59621712499938,136.60400079199462,136.60400079199462,137.0926277499966,None,,,,,,,111111,001,2025-02-17_16h23.10.329,dg_noaudio,2024.2.1,2025-02-17 16h23.42.076147 -0500,
0,3,134,134,0,,,,None,,,,,,,0,134,134,134,137.10401724999247,,,,,,,,,,,,,,,,,,,,,,,,,,,,,,,,,,,,,,,,,,,,,,,,,,,,,,,,,,137.09569704199384,137.10401724999247,137.10401724999247,137.592512874995,None,,,,,,,111111,001,2025-02-17_16h23.10.329,dg_noaudio,2024.2.1,2025-02-17 16h23.42.076147 -0500,
0,7,135,135,0,,,,['3'],[0.11518029200669844],[0.11911050000344403],,,,,0,135,135,135,137.6039844170009,,,,,,,,,,,,,,,,,,,,,,,,,,,,,,,,,,,,,,,,,,,,,,,,,,,,,,,,,,137.59591195799294,137.6039844170009,137.6039844170009,138.09282799999346,['3'],[0.11518029200669844],[0.11911050000344403],,,,,111111,001,2025-02-17_16h23.10.329,dg_noaudio,2024.2.1,2025-02-17 16h23.42.076147 -0500,
0,1,136,136,0,,,,None,,,,,,,0,136,136,136,138.1035645420052,,,,,,,,,,,,,,,,,,,,,,,,,,,,,,,,,,,,,,,,,,,,,,,,,,,,,,,,,,138.09543491700606,138.1035645420052,138.1035645420052,138.59283820800192,None,,,,,,,111111,001,2025-02-17_16h23.10.329,dg_noaudio,2024.2.1,2025-02-17 16h23.42.076147 -0500,
0,8,137,137,0,,,,None,,,,,,,0,137,137,137,138.6042994580057,,,,,,,,,,,,,,,,,,,,,,,,,,,,,,,,,,,,,,,,,,,,,,,,,,,,,,,,,,138.59685566699773,138.6042994580057,138.6042994580057,139.0923770829977,None,,,,,,,111111,001,2025-02-17_16h23.10.329,dg_noaudio,2024.2.1,2025-02-17 16h23.42.076147 -0500,
0,2,138,138,0,,,,['8'],[0.2057320829917444],[0.12175095900602173],,,,,0,138,138,138,139.10394470799656,,,,,,,,,,,,,,,,,,,,,,,,,,,,,,,,,,,,,,,,,,,,,,,,,,,,,,,,,,139.09602524999355,139.10394470799656,139.10394470799656,139.59184958299738,['8'],[0.2057320829917444],[0.12175095900602173],,,,,111111,001,2025-02-17_16h23.10.329,dg_noaudio,2024.2.1,2025-02-17 16h23.42.076147 -0500,
0,5,139,139,0,,,,None,,,,,,,0,139,139,139,139.60401841699786,,,,,,,,,,,,,,,,,,,,,,,,,,,,,,,,,,,,,,,,,,,,,,,,,,,,,,,,,,139.59655037500488,139.60401841699786,139.60401841699786,140.09246387500025,None,,,,,,,111111,001,2025-02-17_16h23.10.329,dg_noaudio,2024.2.1,2025-02-17 16h23.42.076147 -0500,
0,2,140,140,0,,,,['5'],[0.05359729200426955],[None],,,,,0,140,140,140,140.1042702919949,,,,,,,,,,,,,,,,,,,,,,,,,,,,,,,,,,,,,,,,,,,,,,,,,,,,,,,,,,140.09638654200535,140.1042702919949,140.1042702919949,140.59255983299227,['5'],[0.05359729200426955],[None],,,,,111111,001,2025-02-17_16h23.10.329,dg_noaudio,2024.2.1,2025-02-17 16h23.42.076147 -0500,
0,9,141,141,0,,,,None,,,,,,,0,141,141,141,140.60414204199333,,,,,,,,,,,,,,,,,,,,,,,,,,,,,,,,,,,,,,,,,,,,,,,,,,,,,,,,,,140.596017207994,140.60414204199333,140.60414204199333,141.09304500000144,None,,,,,,,111111,001,2025-02-17_16h23.10.329,dg_noaudio,2024.2.1,2025-02-17 16h23.42.076147 -0500,
0,3,142,142,0,,,,['9'],[0.012833625005441718],[0.15174566699715797],,,,,0,142,142,142,141.10486779200437,,,,,,,,,,,,,,,,,,,,,,,,,,,,,,,,,,,,,,,,,,,,,,,,,,,,,,,,,,141.09623141700285,141.10486779200437,141.10486779200437,141.59264975000406,['9'],[0.012833625005441718],[0.15174566699715797],,,,,111111,001,2025-02-17_16h23.10.329,dg_noaudio,2024.2.1,2025-02-17 16h23.42.076147 -0500,
0,7,143,143,0,,,,['3'],[0.12229404199752025],[0.1273052079923218],,,,,0,143,143,143,141.6042161249934,,,,,,,,,,,,,,,,,,,,,,,,,,,,,,,,,,,,,,,,,,,,,,,,,,,,,,,,,,141.59595870799967,141.6042161249934,141.6042161249934,142.09244249999756,['3'],[0.12229404199752025],[0.1273052079923218],,,,,111111,001,2025-02-17_16h23.10.329,dg_noaudio,2024.2.1,2025-02-17 16h23.42.076147 -0500,
0,6,144,144,0,,,,['7'],[0.40440987500187475],[None],,,,,0,144,144,144,142.1040178330004,,,,,,,,,,,,,,,,,,,,,,,,,,,,,,,,,,,,,,,,,,,,,,,,,,,,,,,,,,142.09612516699417,142.1040178330004,142.1040178330004,142.59257437499764,['7'],[0.40440987500187475],[None],,,,,111111,001,2025-02-17_16h23.10.329,dg_noaudio,2024.2.1,2025-02-17 16h23.42.076147 -0500,
0,4,145,145,0,,,,None,,,,,,,0,145,145,145,142.60404879199632,,,,,,,,,,,,,,,,,,,,,,,,,,,,,,,,,,,,,,,,,,,,,,,,,,,,,,,,,,142.5957410419942,142.60404879199632,142.60404879199632,143.09229054200114,None,,,,,,,111111,001,2025-02-17_16h23.10.329,dg_noaudio,2024.2.1,2025-02-17 16h23.42.076147 -0500,
0,2,146,146,0,,,,None,,,,,,,0,146,146,146,143.10377895800048,,,,,,,,,,,,,,,,,,,,,,,,,,,,,,,,,,,,,,,,,,,,,,,,,,,,,,,,,,143.09590633299376,143.10377895800048,143.10377895800048,143.59258054199745,None,,,,,,,111111,001,2025-02-17_16h23.10.329,dg_noaudio,2024.2.1,2025-02-17 16h23.42.076147 -0500,
0,5,147,147,0,,,,None,,,,,,,0,147,147,147,143.60423766699387,,,,,,,,,,,,,,,,,,,,,,,,,,,,,,,,,,,,,,,,,,,,,,,,,,,,,,,,,,143.59693912499642,143.60423766699387,143.60423766699387,144.09208787500393,None,,,,,,,111111,001,2025-02-17_16h23.10.329,dg_noaudio,2024.2.1,2025-02-17 16h23.42.076147 -0500,
0,3,148,148,0,,,,['5'],[0.02256587499869056],[None],,,,,0,148,148,148,144.10264987499977,,,,,,,,,,,,,,,,,,,,,,,,,,,,,,,,,,,,,,,,,,,,,,,,,,,,,,,,,,144.09475287499663,144.10264987499977,144.10264987499977,144.5925206249958,['5'],[0.02256587499869056],[None],,,,,111111,001,2025-02-17_16h23.10.329,dg_noaudio,2024.2.1,2025-02-17 16h23.42.076147 -0500,
0,7,149,149,0,,,,['4'],[0.03893187499488704],[0.09575483300432097],,,,,0,149,149,149,144.60355854200316,,,,,,,,,,,,,,,,,,,,,,,,,,,,,,,,,,,,,,,,,,,,,,,,,,,,,,,,,,144.5961157080019,144.60355854200316,144.60355854200316,145.09250908299873,['4'],[0.03893187499488704],[0.09575483300432097],,,,,111111,001,2025-02-17_16h23.10.329,dg_noaudio,2024.2.1,2025-02-17 16h23.42.076147 -0500,
0,1,150,150,0,,,,['8'],[0.1694522500038147],[0.08082558299065568],,,,,0,150,150,150,145.10404233299778,,,,,,,,,,,,,,,,,,,,,,,,,,,,,,,,,,,,,,,,,,,,,,,,,,,,,,,,,,145.09707912500016,145.10404233299778,145.10404233299778,145.59265808299824,['8'],[0.1694522500038147],[0.08082558299065568],,,,,111111,001,2025-02-17_16h23.10.329,dg_noaudio,2024.2.1,2025-02-17 16h23.42.076147 -0500,
0,8,151,151,0,,,,None,,,,,,,0,151,151,151,145.60388049999892,,,,,,,,,,,,,,,,,,,,,,,,,,,,,,,,,,,,,,,,,,,,,,,,,,,,,,,,,,145.59557562500413,145.60388049999892,145.60388049999892,146.0923843329947,None,,,,,,,111111,001,2025-02-17_16h23.10.329,dg_noaudio,2024.2.1,2025-02-17 16h23.42.076147 -0500,
0,2,152,152,0,,,,None,,,,,,,0,152,152,152,146.1091648330039,,,,,,,,,,,,,,,,,,,,,,,,,,,,,,,,,,,,,,,,,,,,,,,,,,,,,,,,,,146.09595387500303,146.1091648330039,146.1091648330039,146.59283866699843,None,,,,,,,111111,001,2025-02-17_16h23.10.329,dg_noaudio,2024.2.1,2025-02-17 16h23.42.076147 -0500,
0,9,153,153,0,,,,['9'],[0.4607773330062628],[None],,,,,0,153,153,153,146.60380570800044,,,,,,,,,,,,,,,,,,,,,,,,,,,,,,,,,,,,,,,,,,,,,,,,,,,,,,,,,,146.59631741700287,146.60380570800044,146.60380570800044,147.090598958006,['9'],[0.4607773330062628],[None],,,,,111111,001,2025-02-17_16h23.10.329,dg_noaudio,2024.2.1,2025-02-17 16h23.42.076147 -0500,
0,1,154,154,0,,,,None,,,,,,,0,154,154,154,147.1091148330015,,,,,,,,,,,,,,,,,,,,,,,,,,,,,,,,,,,,,,,,,,,,,,,,,,,,,,,,,,147.09340579199488,147.1091148330015,147.1091148330015,147.59275224999874,None,,,,,,,111111,001,2025-02-17_16h23.10.329,dg_noaudio,2024.2.1,2025-02-17 16h23.42.076147 -0500,
0,8,155,155,0,,,,['9'],[0.39485641599458177],[0.07593012500728946],,,,,0,155,155,155,147.60508608300006,,,,,,,,,,,,,,,,,,,,,,,,,,,,,,,,,,,,,,,,,,,,,,,,,,,,,,,,,,147.59748245800438,147.60508608300006,147.60508608300006,148.08612041699234,['9'],[0.39485641599458177],[0.07593012500728946],,,,,111111,001,2025-02-17_16h23.10.329,dg_noaudio,2024.2.1,2025-02-17 16h23.42.076147 -0500,
0,6,156,156,0,,,,None,,,,,,,0,156,156,156,148.10865245800233,,,,,,,,,,,,,,,,,,,,,,,,,,,,,,,,,,,,,,,,,,,,,,,,,,,,,,,,,,148.08930837499793,148.10865245800233,148.10865245800233,148.59251237500575,None,,,,,,,111111,001,2025-02-17_16h23.10.329,dg_noaudio,2024.2.1,2025-02-17 16h23.42.076147 -0500,
0,4,157,157,0,,,,None,,,,,,,0,157,157,157,148.60336249999818,,,,,,,,,,,,,,,,,,,,,,,,,,,,,,,,,,,,,,,,,,,,,,,,,,,,,,,,,,148.59535041700292,148.60336249999818,148.60336249999818,149.0924369169952,None,,,,,,,111111,001,2025-02-17_16h23.10.329,dg_noaudio,2024.2.1,2025-02-17 16h23.42.076147 -0500,
0,2,158,158,0,,,,['4'],[0.3467954999941867],[0.10354775001178496],,,,,0,158,158,158,149.10357516699878,,,,,,,,,,,,,,,,,,,,,,,,,,,,,,,,,,,,,,,,,,,,,,,,,,,,,,,,,,149.09562483300397,149.10357516699878,149.10357516699878,149.5921760420024,['4'],[0.3467954999941867],[0.10354775001178496],,,,,111111,001,2025-02-17_16h23.10.329,dg_noaudio,2024.2.1,2025-02-17 16h23.42.076147 -0500,
0,5,159,159,0,,,,None,,,,,,,0,159,159,159,149.60334720800165,,,,,,,,,,,,,,,,,,,,,,,,,,,,,,,,,,,,,,,,,,,,,,,,,,,,,,,,,,149.59518120800203,149.60334720800165,149.60334720800165,150.09240045800107,None,,,,,,,111111,001,2025-02-17_16h23.10.329,dg_noaudio,2024.2.1,2025-02-17 16h23.42.076147 -0500,
0,1,160,160,0,,,,['5'],[0.163527166005224],[None],,,,,0,160,160,160,150.10389937499713,,,,,,,,,,,,,,,,,,,,,,,,,,,,,,,,,,,,,,,,,,,,,,,,,,,,,,,,,,150.0962167079997,150.10389937499713,150.10389937499713,150.59277970799303,['5'],[0.163527166005224],[None],,,,,111111,001,2025-02-17_16h23.10.329,dg_noaudio,2024.2.1,2025-02-17 16h23.42.076147 -0500,
0,8,161,161,0,,,,None,,,,,,,0,161,161,161,150.60391979200358,,,,,,,,,,,,,,,,,,,,,,,,,,,,,,,,,,,,,,,,,,,,,,,,,,,,,,,,,,150.59514641699207,150.60391979200358,150.60391979200358,151.0922913329996,None,,,,,,,111111,001,2025-02-17_16h23.10.329,dg_noaudio,2024.2.1,2025-02-17 16h23.42.076147 -0500,
0,6,162,162,0,,,,['8'],[0.1688974589924328],[0.10002758300106507],,,,,0,162,162,162,151.10387041700596,,,,,,,,,,,,,,,,,,,,,,,,,,,,,,,,,,,,,,,,,,,,,,,,,,,,,,,,,,151.09612175000075,151.10387041700596,151.10387041700596,151.5928980000026,['8'],[0.1688974589924328],[0.10002758300106507],,,,,111111,001,2025-02-17_16h23.10.329,dg_noaudio,2024.2.1,2025-02-17 16h23.42.076147 -0500,
0,4,163,163,0,,,,None,,,,,,,0,163,163,163,151.60442612499173,,,,,,,,,,,,,,,,,,,,,,,,,,,,,,,,,,,,,,,,,,,,,,,,,,,,,,,,,,151.5963357080036,151.60442612499173,151.60442612499173,152.09213266699226,None,,,,,,,111111,001,2025-02-17_16h23.10.329,dg_noaudio,2024.2.1,2025-02-17 16h23.42.076147 -0500,
0,3,164,164,0,,,,['3'],[0.19051633300841786],[0.12420937498973217],,,,,0,164,164,164,152.10397562499566,,,,,,,,,,,,,,,,,,,,,,,,,,,,,,,,,,,,,,,,,,,,,,,,,,,,,,,,,,152.09626966700307,152.10397562499566,152.10397562499566,152.59266795800067,['3'],[0.19051633300841786],[0.12420937498973217],,,,,111111,001,2025-02-17_16h23.10.329,dg_noaudio,2024.2.1,2025-02-17 16h23.42.076147 -0500,
0,7,165,165,0,,,,None,,,,,,,0,165,165,165,152.60460262499691,,,,,,,,,,,,,,,,,,,,,,,,,,,,,,,,,,,,,,,,,,,,,,,,,,,,,,,,,,152.5963490830036,152.60460262499691,152.60460262499691,153.09274608299893,None,,,,,,,111111,001,2025-02-17_16h23.10.329,dg_noaudio,2024.2.1,2025-02-17 16h23.42.076147 -0500,
0,2,166,166,0,,,,None,,,,,,,0,166,166,166,153.1036218329973,,,,,,,,,,,,,,,,,,,,,,,,,,,,,,,,,,,,,,,,,,,,,,,,,,,,,,,,,,153.09518604200275,153.1036218329973,153.1036218329973,153.592465291993,None,,,,,,,111111,001,2025-02-17_16h23.10.329,dg_noaudio,2024.2.1,2025-02-17 16h23.42.076147 -0500,
0,5,167,167,0,,,,None,,,,,,,0,167,167,167,153.60381908300042,,,,,,,,,,,,,,,,,,,,,,,,,,,,,,,,,,,,,,,,,,,,,,,,,,,,,,,,,,153.59614104199864,153.60381908300042,153.60381908300042,154.09249091699894,None,,,,,,,111111,001,2025-02-17_16h23.10.329,dg_noaudio,2024.2.1,2025-02-17 16h23.42.076147 -0500,
0,1,168,168,0,,,,['5'],[0.04996383300749585],[None],,,,,0,168,168,168,154.10308166699542,,,,,,,,,,,,,,,,,,,,,,,,,,,,,,,,,,,,,,,,,,,,,,,,,,,,,,,,,,154.09551012500015,154.10308166699542,154.10308166699542,154.59275479200005,['5'],[0.04996383300749585],[None],,,,,111111,001,2025-02-17_16h23.10.329,dg_noaudio,2024.2.1,2025-02-17 16h23.42.076147 -0500,
0,8,169,169,0,,,,None,,,,,,,0,169,169,169,154.60389358300017,,,,,,,,,,,,,,,,,,,,,,,,,,,,,,,,,,,,,,,,,,,,,,,,,,,,,,,,,,154.59643449999567,154.60389358300017,154.60389358300017,155.09284204199503,None,,,,,,,111111,001,2025-02-17_16h23.10.329,dg_noaudio,2024.2.1,2025-02-17 16h23.42.076147 -0500,
0,2,170,170,0,,,,['8'],[0.11179804200946819],[0.08758508299069945],,,,,0,170,170,170,155.10445574999903,,,,,,,,,,,,,,,,,,,,,,,,,,,,,,,,,,,,,,,,,,,,,,,,,,,,,,,,,,155.0969454169972,155.10445574999903,155.10445574999903,155.59264216700103,['8'],[0.11179804200946819],[0.08758508299069945],,,,,111111,001,2025-02-17_16h23.10.329,dg_noaudio,2024.2.1,2025-02-17 16h23.42.076147 -0500,
0,9,171,171,0,,,,['9'],[0.4718898329883814],[None],,,,,0,171,171,171,155.6042504579964,,,,,,,,,,,,,,,,,,,,,,,,,,,,,,,,,,,,,,,,,,,,,,,,,,,,,,,,,,155.59706616699987,155.6042504579964,155.6042504579964,156.08966391699505,['9'],[0.4718898329883814],[None],,,,,111111,001,2025-02-17_16h23.10.329,dg_noaudio,2024.2.1,2025-02-17 16h23.42.076147 -0500,
0,1,172,172,0,,,,None,,,,,,,0,172,172,172,156.1087853749923,,,,,,,,,,,,,,,,,,,,,,,,,,,,,,,,,,,,,,,,,,,,,,,,,,,,,,,,,,156.09277712499897,156.1087853749923,156.1087853749923,156.5925463750027,None,,,,,,,111111,001,2025-02-17_16h23.10.329,dg_noaudio,2024.2.1,2025-02-17 16h23.42.076147 -0500,
0,8,173,173,0,,,,['8'],[0.46188537499983795],[None],,,,,0,173,173,173,156.6039184580004,,,,,,,,,,,,,,,,,,,,,,,,,,,,,,,,,,,,,,,,,,,,,,,,,,,,,,,,,,156.59614041699388,156.6039184580004,156.6039184580004,157.08726612500323,['8'],[0.46188537499983795],[None],,,,,111111,001,2025-02-17_16h23.10.329,dg_noaudio,2024.2.1,2025-02-17 16h23.42.076147 -0500,
0,3,174,174,0,,,,None,,,,,,,0,174,174,174,157.10886379200383,,,,,,,,,,,,,,,,,,,,,,,,,,,,,,,,,,,,,,,,,,,,,,,,,,,,,,,,,,157.08990412499406,157.10886379200383,157.10886379200383,157.59266058300273,None,,,,,,,111111,001,2025-02-17_16h23.10.329,dg_noaudio,2024.2.1,2025-02-17 16h23.42.076147 -0500,
0,7,175,175,0,,,,['3'],[0.16005712500191294],[0.11229462499613874],,,,,0,175,175,175,157.6037767079979,,,,,,,,,,,,,,,,,,,,,,,,,,,,,,,,,,,,,,,,,,,,,,,,,,,,,,,,,,157.59614612499718,157.6037767079979,157.6037767079979,158.0922435419925,['3'],[0.16005712500191294],[0.11229462499613874],,,,,111111,001,2025-02-17_16h23.10.329,dg_noaudio,2024.2.1,2025-02-17 16h23.42.076147 -0500,
0,1,176,176,0,,,,['7'],[0.28798712500429247],[0.13486483399174176],,,,,0,176,176,176,158.1034895000048,,,,,,,,,,,,,,,,,,,,,,,,,,,,,,,,,,,,,,,,,,,,,,,,,,,,,,,,,,158.09537075000117,158.1034895000048,158.1034895000048,158.592650666993,['7'],[0.28798712500429247],[0.13486483399174176],,,,,111111,001,2025-02-17_16h23.10.329,dg_noaudio,2024.2.1,2025-02-17 16h23.42.076147 -0500,
0,8,177,177,0,,,,None,,,,,,,0,177,177,177,158.60328700000537,,,,,,,,,,,,,,,,,,,,,,,,,,,,,,,,,,,,,,,,,,,,,,,,,,,,,,,,,,158.5952445419971,158.60328700000537,158.60328700000537,159.09235179200186,None,,,,,,,111111,001,2025-02-17_16h23.10.329,dg_noaudio,2024.2.1,2025-02-17 16h23.42.076147 -0500,
0,3,178,178,0,,,,['8'],[0.039440207998268306],[0.10462462500436231],,,,,0,178,178,178,159.1031890000013,,,,,,,,,,,,,,,,,,,,,,,,,,,,,,,,,,,,,,,,,,,,,,,,,,,,,,,,,,159.09514329199737,159.1031890000013,159.1031890000013,159.5924113749934,['8'],[0.039440207998268306],[0.10462462500436231],,,,,111111,001,2025-02-17_16h23.10.329,dg_noaudio,2024.2.1,2025-02-17 16h23.42.076147 -0500,
0,7,179,179,0,,,,['3'],[0.2362291669996921],[0.11943849999806844],,,,,0,179,179,179,159.6037810830021,,,,,,,,,,,,,,,,,,,,,,,,,,,,,,,,,,,,,,,,,,,,,,,,,,,,,,,,,,159.5953401250008,159.6037810830021,159.6037810830021,160.09271670799353,['3'],[0.2362291669996921],[0.11943849999806844],,,,,111111,001,2025-02-17_16h23.10.329,dg_noaudio,2024.2.1,2025-02-17 16h23.42.076147 -0500,
0,6,180,180,0,,,,['7'],[0.1887735829950543],[0.09117650000553112],,,,,0,180,180,180,160.11152341699926,,,,,,,,,,,,,,,,,,,,,,,,,,,,,,,,,,,,,,,,,,,,,,,,,,,,,,,,,,160.1059184170008,160.11152341699926,160.11152341699926,160.5928252080048,['7'],[0.1887735829950543],[0.09117650000553112],,,,,111111,001,2025-02-17_16h23.10.329,dg_noaudio,2024.2.1,2025-02-17 16h23.42.076147 -0500,
0,4,181,181,0,,,,None,,,,,,,0,181,181,181,160.6052325000055,,,,,,,,,,,,,,,,,,,,,,,,,,,,,,,,,,,,,,,,,,,,,,,,,,,,,,,,,,160.5973614579998,160.6052325000055,160.6052325000055,161.0924216669955,None,,,,,,,111111,001,2025-02-17_16h23.10.329,dg_noaudio,2024.2.1,2025-02-17 16h23.42.076147 -0500,
0,1,182,182,0,,,,['4'],[0.05527591700956691],[0.13226383298751898],,,,,0,182,182,182,161.10384245800378,,,,,,,,,,,,,,,,,,,,,,,,,,,,,,,,,,,,,,,,,,,,,,,,,,,,,,,,,,161.09622412499448,161.10384245800378,161.10384245800378,161.59230495800148,['4'],[0.05527591700956691],[0.13226383298751898],,,,,111111,001,2025-02-17_16h23.10.329,dg_noaudio,2024.2.1,2025-02-17 16h23.42.076147 -0500,
0,8,183,183,0,,,,None,,,,,,,0,183,183,183,161.60378937500354,,,,,,,,,,,,,,,,,,,,,,,,,,,,,,,,,,,,,,,,,,,,,,,,,,,,,,,,,,161.59545029199217,161.60378937500354,161.60378937500354,162.09252325000125,None,,,,,,,111111,001,2025-02-17_16h23.10.329,dg_noaudio,2024.2.1,2025-02-17 16h23.42.076147 -0500,
0,3,184,184,0,,,,['8'],[0.015997082999092527],[0.107299959010561],,,,,0,184,184,184,162.1041331669985,,,,,,,,,,,,,,,,,,,,,,,,,,,,,,,,,,,,,,,,,,,,,,,,,,,,,,,,,,162.0969966249977,162.1041331669985,162.1041331669985,162.5921912079939,['8'],[0.015997082999092527],[0.107299959010561],,,,,111111,001,2025-02-17_16h23.10.329,dg_noaudio,2024.2.1,2025-02-17 16h23.42.076147 -0500,
0,7,185,185,0,,,,['3'],[0.026986249999026768],[0.12329504199442454],,,,,0,185,185,185,162.60388812499878,,,,,,,,,,,,,,,,,,,,,,,,,,,,,,,,,,,,,,,,,,,,,,,,,,,,,,,,,,162.59526358300354,162.60388812499878,162.60388812499878,163.09246179199545,['3'],[0.026986249999026768],[0.12329504199442454],,,,,111111,001,2025-02-17_16h23.10.329,dg_noaudio,2024.2.1,2025-02-17 16h23.42.076147 -0500,
0,1,186,186,0,,,,['5'],[0.13258779200259596],[None],,,,,0,186,186,186,163.1039391249942,,,,,,,,,,,,,,,,,,,,,,,,,,,,,,,,,,,,,,,,,,,,,,,,,,,,,,,,,,163.09628458299267,163.1039391249942,163.1039391249942,163.59234787500463,['5'],[0.13258779200259596],[None],,,,,111111,001,2025-02-17_16h23.10.329,dg_noaudio,2024.2.1,2025-02-17 16h23.42.076147 -0500,
0,8,187,187,0,,,,None,,,,,,,0,187,187,187,163.60375645800377,,,,,,,,,,,,,,,,,,,,,,,,,,,,,,,,,,,,,,,,,,,,,,,,,,,,,,,,,,163.59594600000128,163.60375645800377,163.60375645800377,164.0924170829967,None,,,,,,,111111,001,2025-02-17_16h23.10.329,dg_noaudio,2024.2.1,2025-02-17 16h23.42.076147 -0500,
0,3,188,188,0,,,,['8'],[0.047584707994246855],[0.10885695900651626],,,,,0,188,188,188,164.10359562499798,,,,,,,,,,,,,,,,,,,,,,,,,,,,,,,,,,,,,,,,,,,,,,,,,,,,,,,,,,164.09538050000265,164.10359562499798,164.10359562499798,164.59221683299984,['8'],[0.047584707994246855],[0.10885695900651626],,,,,111111,001,2025-02-17_16h23.10.329,dg_noaudio,2024.2.1,2025-02-17 16h23.42.076147 -0500,
0,7,189,189,0,,,,['3'],[0.053472875006264076],[0.08426379099546466],,,,,0,189,189,189,164.60388004199194,,,,,,,,,,,,,,,,,,,,,,,,,,,,,,,,,,,,,,,,,,,,,,,,,,,,,,,,,,164.5958799170039,164.60388004199194,164.60388004199194,165.0927630829974,['3'],[0.053472875006264076],[0.08426379099546466],,,,,111111,001,2025-02-17_16h23.10.329,dg_noaudio,2024.2.1,2025-02-17 16h23.42.076147 -0500,
0,1,190,190,0,,,,None,,,,,,,0,190,190,190,165.1039553330047,,,,,,,,,,,,,,,,,,,,,,,,,,,,,,,,,,,,,,,,,,,,,,,,,,,,,,,,,,165.09603633299412,165.1039553330047,165.1039553330047,165.59234775000368,None,,,,,,,111111,001,2025-02-17_16h23.10.329,dg_noaudio,2024.2.1,2025-02-17 16h23.42.076147 -0500,
0,8,191,191,0,,,,None,,,,,,,0,191,191,191,165.60937337500218,,,,,,,,,,,,,,,,,,,,,,,,,,,,,,,,,,,,,,,,,,,,,,,,,,,,,,,,,,165.59546304200194,165.60937337500218,165.60937337500218,166.09224516700488,None,,,,,,,111111,001,2025-02-17_16h23.10.329,dg_noaudio,2024.2.1,2025-02-17 16h23.42.076147 -0500,
0,6,192,192,0,,,,['8'],[0.02748470799997449],[0.1029824579891283],,,,,0,192,192,192,166.10326124999847,,,,,,,,,,,,,,,,,,,,,,,,,,,,,,,,,,,,,,,,,,,,,,,,,,,,,,,,,,166.09550220800156,166.10326124999847,166.10326124999847,166.59249316700152,['8'],[0.02748470799997449],[0.1029824579891283],,,,,111111,001,2025-02-17_16h23.10.329,dg_noaudio,2024.2.1,2025-02-17 16h23.42.076147 -0500,
0,4,193,193,0,,,,None,,,,,,,0,193,193,193,166.60390595799254,,,,,,,,,,,,,,,,,,,,,,,,,,,,,,,,,,,,,,,,,,,,,,,,,,,,,,,,,,166.59640562499408,166.60390595799254,166.60390595799254,167.0923677499959,None,,,,,,,111111,001,2025-02-17_16h23.10.329,dg_noaudio,2024.2.1,2025-02-17 16h23.42.076147 -0500,
0,2,194,194,0,,,,None,,,,,,,0,194,194,194,167.10414083300566,,,,,,,,,,,,,,,,,,,,,,,,,,,,,,,,,,,,,,,,,,,,,,,,,,,,,,,,,,167.09655158300302,167.10414083300566,167.10414083300566,167.5922740419919,None,,,,,,,111111,001,2025-02-17_16h23.10.329,dg_noaudio,2024.2.1,2025-02-17 16h23.42.076147 -0500,
0,5,195,195,0,,,,['5'],[0.3842602079967037],[None],,,,,0,195,195,195,167.60526595800184,,,,,,,,,,,,,,,,,,,,,,,,,,,,,,,,,,,,,,,,,,,,,,,,,,,,,,,,,,167.59742866699526,167.60526595800184,167.60526595800184,168.09246987500228,['5'],[0.3842602079967037],[None],,,,,111111,001,2025-02-17_16h23.10.329,dg_noaudio,2024.2.1,2025-02-17 16h23.42.076147 -0500,
0,3,196,196,0,,,,['4'],[0.4143697089893976],[None],,,,,0,196,196,196,168.10681341700547,,,,,,,,,,,,,,,,,,,,,,,,,,,,,,,,,,,,,,,,,,,,,,,,,,,,,,,,,,168.0968944579945,168.10681341700547,168.10681341700547,168.59220229199855,['4'],[0.4143697089893976],[None],,,,,111111,001,2025-02-17_16h23.10.329,dg_noaudio,2024.2.1,2025-02-17 16h23.42.076147 -0500,
0,7,197,197,0,,,,None,,,,,,,0,197,197,197,168.60485424999206,,,,,,,,,,,,,,,,,,,,,,,,,,,,,,,,,,,,,,,,,,,,,,,,,,,,,,,,,,168.59506604200578,168.60485424999206,168.60485424999206,169.09206804199493,None,,,,,,,111111,001,2025-02-17_16h23.10.329,dg_noaudio,2024.2.1,2025-02-17 16h23.42.076147 -0500,
0,6,198,198,0,,,,['8'],[0.19302533401059918],[0.08467466599540785],,,,,0,198,198,198,169.10259487500298,,,,,,,,,,,,,,,,,,,,,,,,,,,,,,,,,,,,,,,,,,,,,,,,,,,,,,,,,,169.09476483300386,169.10259487500298,169.10259487500298,169.5925285830017,['8'],[0.19302533401059918],[0.08467466599540785],,,,,111111,001,2025-02-17_16h23.10.329,dg_noaudio,2024.2.1,2025-02-17 16h23.42.076147 -0500,
0,4,199,199,0,,,,None,,,,,,,0,199,199,199,169.60393425000075,,,,,,,,,,,,,,,,,,,,,,,,,,,,,,,,,,,,,,,,,,,,,,,,,,,,,,,,,,169.59564816700004,169.60393425000075,169.60393425000075,170.09223262500018,None,,,,,,,111111,001,2025-02-17_16h23.10.329,dg_noaudio,2024.2.1,2025-02-17 16h23.42.076147 -0500,
,,,,,,,,,,,,,,,,,,,,,,,,,,,,,,,,,,,,,,,,,,,,,,,,,,,,,,,,,,,,,,,,,,,,,,,,,,,,,,,,,,,,170.28959208300512,170.29556362499716,170.29556362499716,171.3090317919996,,,,,,,
